workerid,proliferate.condition,acceptability_rating,block_id,condition,context,item_id,rt,trial_num,verb,wrong_attempts,error
1235,condition1,1,practice,practice_acceptability_good_1,Hanako said: Fiona didn't buy pineapple.,201,,0,NA,0,
1235,condition1,0.04,practice,practice_accpetability_bad_2,Hanako said: Prisha doesn't speak Korean.,204,,0,NA,0,
1235,condition1,0.66,0,say_adv,Hanako said: Donald didn't say cheerfully that Hasan talked to the detectives.,8,10253,1,say cheerfully,,
1235,condition1,0.63,0,say,Hanako said: Tim didn't say that Charlie saw the robber.,6,9982,2,say,,
1235,condition1,0.72,0,filler_good,Hanako said: Hannah didn't expect that George emailed the students.,101,8150,3,expect,,
1235,condition1,0,0,filler_bad,Hanako said: Igor didn't reveal that Kevin and Paul drafted the letter.,113,8542,4,reveal,,
1235,condition1,0.02,0,filler_bad,Hanako said: Helen didn't believe that Frank and Lisa were in the office.,116,5242,5,believe,,
1235,condition1,0.83,0,filler_good,Hanako said: Julian didn't speculate that Karen wrote a book.,104,4813,6,speculate,,
1235,condition1,0.74,1,say,Hanako said: Sally didn't say that Brandon broke his laptop.,4,7246,7,say,,
1235,condition1,0.52,1,say_adv,Hanako said: Emily didn't say wearily that Omar had dinner with his manager.,10,10839,8,say wearily,,
1235,condition1,0.72,1,filler_good,Hanako said: Ollie didn't reveal that Dana brought a gift.,108,3822,9,reveal,,
1235,condition1,0.83,1,filler_good,Hanako said: Kate didn't guess that Maddie would call her roommate.,106,5103,10,guess,,
1235,condition1,0.04,1,filler_bad,Hanako said: Bill didn't expect that Liz and Jason drank the beer. ,115,4023,11,expect,,
1235,condition1,0.03,1,filler_bad,Hanako said: Frankie didn't speculate that Judith and Laura would order pizza.,118,4191,12,speculate,,
1235,condition1,0,2,filler_bad,Hanako said: Grace didn't guess that the assistant to the director would give the presentation.,122,6272,13,guess,,
1235,condition1,1,2,say,Hanako said: Nancy didn't say that Dan knew the professor.,5,4861,14,say,,
1235,condition1,0.79,2,filler_good,Hanako said: Jessie didn't expect that Tony would visit George.,112,3503,15,expect,,
1235,condition1,0.64,2,filler_good,Hanako said: Ashley didn't hope that Zack broke the plates.,109,4255,16,hope,,
1235,condition1,0.01,2,filler_bad,Hanako said: Howard didn't hope that Karl and Nick cooked dinner.,117,5575,17,hope,,
1235,condition1,0.63,2,say_adv,Hanako said: Emma didn't say bluntly that Yumi found the wallet.,7,3927,18,say bluntly,,
1235,condition1,0.01,3,filler_bad,Hanako said: Laura didn't expect that the book about astronomy was on the shelf.,124,6423,19,expect,,
1235,condition1,0.97,3,filler_good,Hanako said: Yash didn't insist that Jennifer got a cat.,105,4911,20,insist,,
1235,condition1,0.03,3,say_adv,Hanako said: Rui didn't say quietly that Tia brought her parents.,12,7855,21,say quietly,,
1235,condition1,0.69,3,say,Hanako said: Tony didn't say that Ming forgot her phone. ,9,4647,22,say,,
1235,condition1,0.88,3,filler_good,Hanako said: Matthew didn't suspect that Julian ate the cupcake.,103,3880,23,suspect,,
1235,condition1,0.03,3,filler_bad,Hanako said: Fatima didn't suggest that Carol's brother signed the contract.,119,6335,24,suggest,,
1235,condition1,0.68,4,say,Hanako said: Jake didn't say that Kevin lost the keys.,2,2406,25,say,,
1235,condition1,0.03,4,filler_bad,Hanako said: John didn't insist that the agent of the guitarist would show up.,120,4448,26,insist,,
1235,condition1,0.03,4,filler_bad,Hanako said: Ronald didn't suspect that Eva's uncle should stay for dinner.,121,5600,27,suspect,,
1235,condition1,0.77,4,filler_good,Hanako said: Larry didn't think that Doug would invite the mayor.,102,4318,28,think,,
1235,condition1,0.96,4,filler_good,Hanako said: Chandler didn't imply that Jacy rented the truck.,107,4184,29,imply,,
1235,condition1,0.55,4,say_adv,Hanako said: Ben didn't say loudly that Alex bought a birthday cake.,3,4567,30,say loudly,,
1235,condition1,0.99,5,filler_good,Hanako said: Jess didn't suggest that Charlie received a message.,110,3623,31,suggest,,
1235,condition1,0.59,5,say,Hanako said: Amy didn't say that Penny won the lottery.,11,3601,32,say,,
1235,condition1,0.61,5,say_adv,Hanako said: Jamal didn't say ruefully that Mary met with the lawyer.,1,7925,33,say ruefully,,
1235,condition1,0.02,5,filler_bad,Hanako said: Charlie didn't think that Rob and Marc cut the bread. ,114,4447,34,think,,
1235,condition1,0.03,5,filler_bad,Hanako said: Ted didn't imply that Krisha's parents were moving to Texas.,123,5679,35,imply,,
1235,condition1,0.38,5,filler_good,Hanako said: Danny didn't believe that Todd went out with Betty.,111,4999,36,believe,,
1167,condition1,0.98,practice,practice_acceptability_good_1,Hanako said: Fiona didn't buy pineapple.,201,,0,NA,0,
1167,condition1,0.04,practice,practice_accpetability_bad_2,Hanako said: Prisha doesn't speak Korean.,204,,0,NA,0,
1167,condition1,0.96,0,filler_good,Hanako said: Danny didn't suggest that Zack broke the plates.,109,7191,1,suggest,,
1167,condition1,0.28,0,say,Hanako said: Jessie didn't say that Alex bought a birthday cake.,3,8638,2,say,,
1167,condition1,0.38,0,say_adv,Hanako said: Chandler didn't say dryly that Tia brought her parents.,12,6417,3,say dryly,,
1167,condition1,0.03,0,filler_bad,Hanako said: Tim didn't suspect that Carol's brother signed the contract.,119,5943,4,suspect,,
1167,condition1,0.96,0,filler_good,Hanako said: Emma didn't suspect that Maddie would call her roommate.,106,4330,5,suspect,,
1167,condition1,0.04,0,filler_bad,Hanako said: Jake didn't guess that the assistant to the director would give the presentation.,122,9596,6,guess,,
1167,condition1,0.94,1,filler_good,Hanako said: Sally didn't guess that George emailed the students.,101,3715,7,guess,,
1167,condition1,0.97,1,filler_good,Hanako said: Amy didn't insist that Jennifer got a cat.,105,3208,8,insist,,
1167,condition1,0.58,1,say,Hanako said: Hannah didn't say that Ming forgot her phone. ,9,4675,9,say,,
1167,condition1,0.07,1,say_adv,Hanako said: John didn't say gently that Dan knew the professor.,5,23261,10,say gently,,
1167,condition1,0.03,1,filler_bad,Hanako said: Frankie didn't believe that Frank and Lisa were in the office.,116,4292,11,believe,,
1167,condition1,0.05,1,filler_bad,Hanako said: Ted didn't suggest that Liz and Jason drank the beer. ,115,5285,12,suggest,,
1167,condition1,0,2,say,Hanako said: Matthew didn't say that Penny won the lottery.,11,4701,13,say,,
1167,condition1,0.92,2,filler_bad,Hanako said: Ollie didn't think that the book about astronomy was on the shelf.,124,10307,14,think,,
1167,condition1,0.77,2,filler_good,Hanako said: Helen didn't hope that Charlie received a message.,110,15334,15,hope,,
1167,condition1,0.88,2,filler_good,Hanako said: Donald didn't expect that Jacy rented the truck.,107,3082,16,expect,,
1167,condition1,0.02,2,filler_bad,Hanako said: Ronald didn't reveal that Karl and Nick cooked dinner.,117,5529,17,reveal,,
1167,condition1,0.03,2,say_adv,Hanako said: Yash didn't say wearily that Kevin lost the keys.,2,27367,18,say wearily,,
1167,condition1,0.95,3,say,Hanako said: Charlie didn't say that Brandon broke his laptop.,4,4215,19,say,,
1167,condition1,0.96,3,filler_good,Hanako said: Tony didn't believe that Karen wrote a book.,104,3935,20,believe,,
1167,condition1,0.05,3,filler_bad,Hanako said: Emily didn't expect that the agent of the guitarist would show up.,120,3990,21,expect,,
1167,condition1,0.19,3,filler_bad,Hanako said: Ben didn't speculate that Krisha's parents were moving to Texas.,123,4578,22,speculate,,
1167,condition1,0.99,3,filler_good,Hanako said: Nancy didn't expect that Doug would invite the mayor.,102,12547,23,expect,,
1167,condition1,0.1,3,say_adv,Hanako said: Jess didn't say bluntly that Charlie saw the robber.,6,3390,24,say bluntly,,
1167,condition1,0.95,4,filler_good,Hanako said: Grace didn't speculate that Todd went out with Betty.,111,3623,25,speculate,,
1167,condition1,0.06,4,filler_bad,Hanako said: Kate didn't imply that Eva's uncle should stay for dinner.,121,4447,26,imply,,
1167,condition1,0.1,4,filler_bad,Hanako said: Howard didn't insist that Judith and Laura would order pizza.,118,25347,27,insist,,
1167,condition1,0.15,4,say_adv,Hanako said: Ashley didn't say cheerfully that Mary met with the lawyer.,1,4237,28,say cheerfully,,
1167,condition1,0.6,4,say,Hanako said: Rui didn't say that Yumi found the wallet.,7,4578,29,say,,
1167,condition1,0.77,4,filler_good,Hanako said: Laura didn't reveal that Julian ate the cupcake.,103,2892,30,reveal,,
1167,condition1,0.02,5,say,Hanako said: Igor didn't say that Hasan talked to the detectives.,8,4318,31,say,,
1167,condition1,0.22,5,filler_bad,Hanako said: Fatima didn't hope that Kevin and Paul drafted the letter.,113,21146,32,hope,,
1167,condition1,0.16,5,filler_bad,Hanako said: Julian didn't expect that Rob and Marc cut the bread. ,114,27203,33,expect,,
1167,condition1,0.79,5,filler_good,Hanako said: Jamal didn't think that Tony would visit George.,112,4685,34,think,,
1167,condition1,0.81,5,filler_good,Hanako said: Larry didn't imply that Dana brought a gift.,108,3006,35,imply,,
1167,condition1,0.05,5,say_adv,Hanako said: Bill didn't say sternly that Omar had dinner with his manager.,10,3179,36,say sternly,,
1193,condition1,0.96,practice,practice_acceptability_good_1,Hanako said: Fiona didn't buy pineapple.,201,,0,NA,0,
1193,condition1,0,practice,practice_accpetability_bad_2,Hanako said: Prisha doesn't speak Korean.,204,,0,NA,0,
1193,condition1,0.05,0,filler_bad,Hanako said: Grace didn't imply that Karl and Nick cooked dinner.,117,18580,1,imply,,
1193,condition1,0.85,0,say,Hanako said: Amy didn't say that Yumi found the wallet.,7,11199,2,say,,
1193,condition1,1,0,filler_good,Hanako said: Howard didn't think that Charlie received a message.,110,11075,3,think,,
1193,condition1,0.97,0,filler_good,Hanako said: Rui didn't expect that Tony would visit George.,112,9124,4,expect,,
1193,condition1,0.86,0,say_adv,Hanako said: Danny didn't say wearily that Hasan talked to the detectives.,8,19300,5,say wearily,,
1193,condition1,0.04,0,filler_bad,Hanako said: Frankie didn't suspect that Carol's brother signed the contract.,119,8071,6,suspect,,
1193,condition1,0.04,1,filler_bad,Hanako said: Hannah didn't think that Kevin and Paul drafted the letter.,113,13424,7,think,,
1193,condition1,0.94,1,filler_good,Hanako said: Nancy didn't imply that Karen wrote a book.,104,9579,8,imply,,
1193,condition1,1,1,filler_good,Hanako said: Charlie didn't suggest that Maddie would call her roommate.,106,7176,9,suggest,,
1193,condition1,0.78,1,say_adv,Hanako said: Tim didn't say quietly that Ming forgot her phone. ,9,8823,10,say quietly,,
1193,condition1,0.94,1,say,Hanako said: Jamal didn't say that Dan knew the professor.,5,13511,11,say,,
1193,condition1,0.1,1,filler_bad,Hanako said: Ted didn't guess that the assistant to the director would give the presentation.,122,12178,12,guess,,
1193,condition1,0.95,2,say,Hanako said: Chandler didn't say that Alex bought a birthday cake.,3,6386,13,say,,
1193,condition1,0.01,2,filler_bad,Hanako said: Sally didn't insist that the book about astronomy was on the shelf.,124,12670,14,insist,,
1193,condition1,0.95,2,say_adv,Hanako said: John didn't say loudly that Penny won the lottery.,11,8051,15,say loudly,,
1193,condition1,0.96,2,filler_good,Hanako said: Julian didn't speculate that Jennifer got a cat.,105,12736,16,speculate,,
1193,condition1,0.02,2,filler_bad,Hanako said: Donald didn't suggest that Krisha's parents were moving to Texas.,123,9340,17,suggest,,
1193,condition1,0.98,2,filler_good,Hanako said: Larry didn't believe that Todd went out with Betty.,111,8678,18,believe,,
1193,condition1,0.05,3,filler_bad,Hanako said: Helen didn't hope that Rob and Marc cut the bread. ,114,9906,19,hope,,
1193,condition1,0.04,3,filler_bad,Hanako said: Emma didn't expect that the agent of the guitarist would show up.,120,8051,20,expect,,
1193,condition1,0.98,3,say,Hanako said: Ollie didn't say that Brandon broke his laptop.,4,6118,21,say,,
1193,condition1,0.94,3,say_adv,Hanako said: Ashley didn't say ruefully that Tia brought her parents.,12,23874,22,say ruefully,,
1193,condition1,0.97,3,filler_good,Hanako said: Fatima didn't expect that Julian ate the cupcake.,103,8100,23,expect,,
1193,condition1,1,3,filler_good,Hanako said: Tony didn't suspect that Dana brought a gift.,108,9065,24,suspect,,
1193,condition1,0.97,4,say,Hanako said: Ronald didn't say that Mary met with the lawyer.,1,10911,25,say,,
1193,condition1,0.04,4,filler_bad,Hanako said: Ben didn't expect that Eva's uncle should stay for dinner.,121,11157,26,expect,,
1193,condition1,0.99,4,filler_good,Hanako said: Laura didn't insist that George emailed the students.,101,7317,27,insist,,
1193,condition1,0.02,4,filler_bad,Hanako said: Matthew didn't speculate that Judith and Laura would order pizza.,118,11283,28,speculate,,
1193,condition1,0.98,4,say_adv,Hanako said: Jake didn't say dryly that Omar had dinner with his manager.,10,7359,29,say dryly,,
1193,condition1,0.99,4,filler_good,Hanako said: Kate didn't guess that Jacy rented the truck.,107,5240,30,guess,,
1193,condition1,0.99,5,say,Hanako said: Bill didn't say that Kevin lost the keys.,2,4374,31,say,,
1193,condition1,0,5,filler_bad,Hanako said: Yash didn't reveal that Liz and Jason drank the beer. ,115,5578,32,reveal,,
1193,condition1,0.57,5,say_adv,Hanako said: Emily didn't say calmly that Charlie saw the robber.,6,7288,33,say calmly,,
1193,condition1,0.08,5,filler_bad,Hanako said: Jess didn't believe that Frank and Lisa were in the office.,116,6435,34,believe,,
1193,condition1,0.96,5,filler_good,Hanako said: Igor didn't reveal that Doug would invite the mayor.,102,6890,35,reveal,,
1193,condition1,0.99,5,filler_good,Hanako said: Jessie didn't hope that Zack broke the plates.,109,6438,36,hope,,
1187,condition1,0.74,practice,practice_acceptability_good_1,Hanako said: Fiona didn't buy pineapple.,201,,0,NA,0,
1187,condition1,0.42,practice,practice_accpetability_bad_2,Hanako said: Prisha doesn't speak Korean.,204,,0,NA,0,
1187,condition1,0.69,0,filler_bad,Hanako said: Emma didn't believe that Liz and Jason drank the beer. ,115,11333,1,believe,,
1187,condition1,0.56,0,say_adv,Hanako said: Jake didn't say loudly that Brandon broke his laptop.,4,10655,2,say loudly,,
1187,condition1,0.88,0,filler_good,Hanako said: Tim didn't imply that George emailed the students.,101,7095,3,imply,,
1187,condition1,0.21,0,filler_good,Hanako said: Nancy didn't suspect that Jennifer got a cat.,105,5031,4,suspect,,
1187,condition1,0.54,0,filler_bad,Hanako said: Charlie didn't think that Rob and Marc cut the bread. ,114,24080,5,think,,
1187,condition1,0.82,0,say,Hanako said: Matthew didn't say that Ming forgot her phone. ,9,7903,6,say,,
1187,condition1,0.59,1,filler_bad,Hanako said: Chandler didn't insist that the book about astronomy was on the shelf.,124,6119,7,insist,,
1187,condition1,0.42,1,filler_good,Hanako said: Jessie didn't believe that Todd went out with Betty.,111,12151,8,believe,,
1187,condition1,0.74,1,say,Hanako said: Tony didn't say that Dan knew the professor.,5,8031,9,say,,
1187,condition1,0.4,1,filler_bad,Hanako said: Ben didn't guess that Karl and Nick cooked dinner.,117,8320,10,guess,,
1187,condition1,0.81,1,say_adv,Hanako said: Kate didn't say wearily that Hasan talked to the detectives.,8,3527,11,say wearily,,
1187,condition1,0.53,1,filler_good,Hanako said: Danny didn't suggest that Doug would invite the mayor.,102,4320,12,suggest,,
1187,condition1,0.77,2,filler_good,Hanako said: John didn't insist that Dana brought a gift.,108,4903,13,insist,,
1187,condition1,0.7,2,say,Hanako said: Grace didn't say that Charlie saw the robber.,6,5255,14,say,,
1187,condition1,0.59,2,filler_bad,Hanako said: Ollie didn't suspect that Judith and Laura would order pizza.,118,7657,15,suspect,,
1187,condition1,0.17,2,filler_bad,Hanako said: Hannah didn't hope that Eva's uncle should stay for dinner.,121,4727,16,hope,,
1187,condition1,0.59,2,say_adv,Hanako said: Julian didn't say dryly that Penny won the lottery.,11,7569,17,say dryly,,
1187,condition1,0.27,2,filler_good,Hanako said: Yash didn't speculate that Jacy rented the truck.,107,4920,18,speculate,,
1187,condition1,0.35,3,say,Hanako said: Jamal didn't say that Kevin lost the keys.,2,6648,19,say,,
1187,condition1,0.84,3,filler_good,Hanako said: Igor didn't hope that Julian ate the cupcake.,103,7680,20,hope,,
1187,condition1,0.63,3,filler_good,Hanako said: Ronald didn't expect that Charlie received a message.,110,5920,21,expect,,
1187,condition1,0.76,3,filler_bad,Hanako said: Larry didn't expect that Krisha's parents were moving to Texas.,123,5032,22,expect,,
1187,condition1,0.5,3,filler_bad,Hanako said: Laura didn't speculate that the assistant to the director would give the presentation.,122,2336,23,speculate,,
1187,condition1,0.72,3,say_adv,Hanako said: Ashley didn't say cheerfully that Alex bought a birthday cake.,3,3671,24,say cheerfully,,
1187,condition1,0.82,4,filler_bad,Hanako said: Amy didn't reveal that Frank and Lisa were in the office.,116,2951,25,reveal,,
1187,condition1,0.19,4,say_adv,Hanako said: Bill didn't say ruefully that Omar had dinner with his manager.,10,3081,26,say ruefully,,
1187,condition1,0.46,4,filler_good,Hanako said: Rui didn't think that Tony would visit George.,112,4502,27,think,,
1187,condition1,0.38,4,say,Hanako said: Ted didn't say that Tia brought her parents.,12,5632,28,say,,
1187,condition1,0.6,4,filler_bad,Hanako said: Fatima didn't expect that the agent of the guitarist would show up.,120,3721,29,expect,,
1187,condition1,0.14,4,filler_good,Hanako said: Helen didn't expect that Zack broke the plates.,109,6959,30,expect,,
1187,condition1,0.47,5,say,Hanako said: Jess didn't say that Yumi found the wallet.,7,2784,31,say,,
1187,condition1,0.6,5,say_adv,Hanako said: Frankie didn't say softly that Mary met with the lawyer.,1,4768,32,say softly,,
1187,condition1,0.77,5,filler_bad,Hanako said: Sally didn't suggest that Carol's brother signed the contract.,119,3576,33,suggest,,
1187,condition1,0.45,5,filler_bad,Hanako said: Donald didn't imply that Kevin and Paul drafted the letter.,113,3800,34,imply,,
1187,condition1,0.76,5,filler_good,Hanako said: Howard didn't guess that Karen wrote a book.,104,4696,35,guess,,
1187,condition1,0.71,5,filler_good,Hanako said: Emily didn't reveal that Maddie would call her roommate.,106,5144,36,reveal,,
1240,condition1,1,practice,practice_acceptability_good_1,Hanako said: Fiona didn't buy pineapple.,201,,0,NA,0,
1240,condition1,0.12,practice,practice_accpetability_bad_2,Hanako said: Prisha doesn't speak Korean.,204,,0,NA,0,
1240,condition1,0.55,0,say,Hanako said: Ollie didn't say that Penny won the lottery.,11,10144,1,say,,
1240,condition1,0.4,0,filler_good,Hanako said: Rui didn't hope that Jacy rented the truck.,107,5664,2,hope,,
1240,condition1,0.45,0,filler_bad,Hanako said: Ronald didn't suggest that Frank and Lisa were in the office.,116,6055,3,suggest,,
1240,condition1,0.29,0,filler_bad,Hanako said: Ashley didn't think that the agent of the guitarist would show up.,120,6561,4,think,,
1240,condition1,0.26,0,filler_good,Hanako said: Jessie didn't suspect that Jennifer got a cat.,105,5392,5,suspect,,
1240,condition1,0.15,0,say_adv,Hanako said: Amy didn't say bluntly that Kevin lost the keys.,2,7468,6,say bluntly,,
1240,condition1,0.27,1,filler_bad,Hanako said: Larry didn't insist that Eva's uncle should stay for dinner.,121,14816,7,insist,,
1240,condition1,0.17,1,filler_good,Hanako said: Fatima didn't reveal that Karen wrote a book.,104,3275,8,reveal,,
1240,condition1,0.29,1,say,Hanako said: Kate didn't say that Omar had dinner with his manager.,10,3877,9,say,,
1240,condition1,0.42,1,filler_bad,Hanako said: Grace didn't hope that Judith and Laura would order pizza.,118,4103,10,hope,,
1240,condition1,0.38,1,filler_good,Hanako said: Hannah didn't think that Charlie received a message.,110,2777,11,think,,
1240,condition1,0.31,1,say_adv,Hanako said: Tim didn't say cheerfully that Dan knew the professor.,5,6344,12,say cheerfully,,
1240,condition1,0.32,2,filler_good,Hanako said: Charlie didn't imply that Doug would invite the mayor.,102,130523,13,imply,,
1240,condition1,0.22,2,say_adv,Hanako said: Julian didn't say quietly that Ming forgot her phone. ,9,2768,14,say quietly,,
1240,condition1,0.35,2,say,Hanako said: John didn't say that Yumi found the wallet.,7,3209,15,say,,
1240,condition1,0.28,2,filler_bad,Hanako said: Sally didn't speculate that Liz and Jason drank the beer. ,115,2007,16,speculate,,
1240,condition1,0.44,2,filler_bad,Hanako said: Jess didn't imply that Karl and Nick cooked dinner.,117,2920,17,imply,,
1240,condition1,0.29,2,filler_good,Hanako said: Igor didn't expect that Tony would visit George.,112,6288,18,expect,,
1240,condition1,0.33,3,filler_good,Hanako said: Emma didn't expect that Dana brought a gift.,108,1992,19,expect,,
1240,condition1,0.71,3,filler_bad,Hanako said: Jamal didn't guess that Kevin and Paul drafted the letter.,113,6768,20,guess,,
1240,condition1,0.23,3,filler_good,Hanako said: Donald didn't speculate that Zack broke the plates.,109,4480,21,speculate,,
1240,condition1,0.47,3,say,Hanako said: Nancy didn't say that Tia brought her parents.,12,5568,22,say,,
1240,condition1,0.26,3,say_adv,Hanako said: Chandler didn't say loudly that Mary met with the lawyer.,1,8768,23,say loudly,,
1240,condition1,0.35,3,filler_bad,Hanako said: Helen didn't believe that Krisha's parents were moving to Texas.,123,3360,24,believe,,
1240,condition1,0.21,4,filler_bad,Hanako said: Yash didn't expect that the assistant to the director would give the presentation.,122,17184,25,expect,,
1240,condition1,0.11,4,filler_good,Hanako said: Matthew didn't believe that George emailed the students.,101,4856,26,believe,,
1240,condition1,0.22,4,filler_good,Hanako said: Danny didn't suggest that Todd went out with Betty.,111,2100,27,suggest,,
1240,condition1,0.64,4,say_adv,Hanako said: Frankie didn't say wearily that Hasan talked to the detectives.,8,6216,28,say wearily,,
1240,condition1,0.32,4,say,Hanako said: Ben didn't say that Brandon broke his laptop.,4,6440,29,say,,
1240,condition1,0.45,4,filler_bad,Hanako said: Emily didn't reveal that Rob and Marc cut the bread. ,114,5824,30,reveal,,
1240,condition1,0.38,5,say_adv,Hanako said: Bill didn't say ruefully that Charlie saw the robber.,6,9151,31,say ruefully,,
1240,condition1,0.22,5,filler_good,Hanako said: Tony didn't insist that Julian ate the cupcake.,103,2968,32,insist,,
1240,condition1,0.41,5,filler_bad,Hanako said: Jake didn't expect that Carol's brother signed the contract.,119,5448,33,expect,,
1240,condition1,0.31,5,filler_bad,Hanako said: Laura didn't suspect that the book about astronomy was on the shelf.,124,2761,34,suspect,,
1240,condition1,0.61,5,say,Hanako said: Ted didn't say that Alex bought a birthday cake.,3,24103,35,say,,
1240,condition1,0.21,5,filler_good,Hanako said: Howard didn't guess that Maddie would call her roommate.,106,3399,36,guess,,
1158,condition1,0.94,practice,practice_acceptability_good_1,Hanako said: Fiona didn't buy pineapple.,201,,0,NA,0,
1158,condition1,0.01,practice,practice_accpetability_bad_2,Hanako said: Prisha doesn't speak Korean.,204,,0,NA,0,
1158,condition1,0.96,0,filler_good,Hanako said: Emma didn't suggest that Zack broke the plates.,109,21259,1,suggest,,
1158,condition1,0.01,0,filler_bad,Hanako said: Bill didn't think that Eva's uncle should stay for dinner.,121,13134,2,think,,
1158,condition1,0.01,0,filler_bad,Hanako said: Charlie didn't imply that the agent of the guitarist would show up.,120,18663,3,imply,,
1158,condition1,0.03,0,say_adv,Hanako said: Chandler didn't say quietly that Omar had dinner with his manager.,10,17739,4,say quietly,,
1158,condition1,0.96,0,say,Hanako said: Yash didn't say that Ming forgot her phone. ,9,14236,5,say,,
1158,condition1,0.96,0,filler_good,Hanako said: Tony didn't believe that Jennifer got a cat.,105,7726,6,believe,,
1158,condition1,0.01,1,filler_bad,Hanako said: Jake didn't believe that the assistant to the director would give the presentation.,122,11899,7,believe,,
1158,condition1,0.97,1,filler_good,Hanako said: Tim didn't insist that Todd went out with Betty.,111,10146,8,insist,,
1158,condition1,0.98,1,say,Hanako said: Danny didn't say that Charlie saw the robber.,6,7245,9,say,,
1158,condition1,0.95,1,filler_good,Hanako said: Jess didn't guess that Tony would visit George.,112,6407,10,guess,,
1158,condition1,0.03,1,filler_bad,Hanako said: Larry didn't reveal that Krisha's parents were moving to Texas.,123,11656,11,reveal,,
1158,condition1,0.98,1,say_adv,Hanako said: Emily didn't say sternly that Alex bought a birthday cake.,3,4765,12,say sternly,,
1158,condition1,0,2,filler_bad,Hanako said: Ben didn't hope that Judith and Laura would order pizza.,118,5893,13,hope,,
1158,condition1,0.99,2,say_adv,Hanako said: Jamal didn't say cheerfully that Mary met with the lawyer.,1,5339,14,say cheerfully,,
1158,condition1,0.98,2,filler_good,Hanako said: Ashley didn't suspect that Maddie would call her roommate.,106,5056,15,suspect,,
1158,condition1,0,2,filler_bad,Hanako said: Nancy didn't insist that Rob and Marc cut the bread. ,114,10897,16,insist,,
1158,condition1,0.99,2,say,Hanako said: Amy didn't say that Tia brought her parents.,12,4290,17,say,,
1158,condition1,0.98,2,filler_good,Hanako said: John didn't expect that Jacy rented the truck.,107,4172,18,expect,,
1158,condition1,0.99,3,say_adv,Hanako said: Ollie didn't say bluntly that Penny won the lottery.,11,8426,19,say bluntly,,
1158,condition1,0.92,3,filler_good,Hanako said: Kate didn't hope that Charlie received a message.,110,7309,20,hope,,
1158,condition1,0.96,3,filler_good,Hanako said: Jessie didn't speculate that George emailed the students.,101,4674,21,speculate,,
1158,condition1,0.03,3,filler_bad,Hanako said: Ronald didn't guess that Kevin and Paul drafted the letter.,113,6958,22,guess,,
1158,condition1,0.04,3,filler_bad,Hanako said: Matthew didn't expect that Liz and Jason drank the beer. ,115,5041,23,expect,,
1158,condition1,0.96,3,say,Hanako said: Laura didn't say that Hasan talked to the detectives.,8,7441,24,say,,
1158,condition1,0,4,filler_good,Hanako said: Grace didn't expect that Dana brought a gift.,108,11651,25,expect,,
1158,condition1,0.06,4,say_adv,Hanako said: Fatima didn't say loudly that Yumi found the wallet.,7,5373,26,say loudly,,
1158,condition1,0.99,4,filler_good,Hanako said: Ted didn't think that Karen wrote a book.,104,6742,27,think,,
1158,condition1,0.53,4,say,Hanako said: Hannah didn't say that Brandon broke his laptop.,4,8109,28,say,,
1158,condition1,0.22,4,filler_bad,Hanako said: Igor didn't suggest that Carol's brother signed the contract.,119,9849,29,suggest,,
1158,condition1,0.99,4,filler_bad,Hanako said: Helen didn't suspect that the book about astronomy was on the shelf.,124,6891,30,suspect,,
1158,condition1,0.96,5,filler_good,Hanako said: Donald didn't reveal that Doug would invite the mayor.,102,5791,31,reveal,,
1158,condition1,0.01,5,filler_bad,Hanako said: Frankie didn't expect that Karl and Nick cooked dinner.,117,4539,32,expect,,
1158,condition1,0,5,filler_bad,Hanako said: Sally didn't speculate that Frank and Lisa were in the office.,116,8777,33,speculate,,
1158,condition1,0.96,5,say_adv,Hanako said: Julian didn't say gently that Kevin lost the keys.,2,8259,34,say gently,,
1158,condition1,0.94,5,filler_good,Hanako said: Rui didn't imply that Julian ate the cupcake.,103,4107,35,imply,,
1158,condition1,0.93,5,say,Hanako said: Howard didn't say that Dan knew the professor.,5,4823,36,say,,
1204,condition1,1,practice,practice_acceptability_good_1,Hanako said: Fiona didn't buy pineapple.,201,,0,NA,0,
1204,condition1,0,practice,practice_accpetability_bad_2,Hanako said: Prisha doesn't speak Korean.,204,,0,NA,0,
1204,condition1,0.85,0,filler_good,Hanako said: Jessie didn't believe that George emailed the students.,101,9814,1,believe,,
1204,condition1,0,0,filler_bad,Hanako said: Nancy didn't expect that Judith and Laura would order pizza.,118,7542,2,expect,,
1204,condition1,0,0,say_adv,Hanako said: Yash didn't say quietly that Penny won the lottery.,11,5613,3,say quietly,,
1204,condition1,0,0,filler_bad,Hanako said: Emily didn't reveal that Eva's uncle should stay for dinner.,121,6022,4,reveal,,
1204,condition1,1,0,filler_good,Hanako said: Fatima didn't insist that Charlie received a message.,110,4534,5,insist,,
1204,condition1,1,0,say,Hanako said: Frankie didn't say that Mary met with the lawyer.,1,5840,6,say,,
1204,condition1,1,1,say_adv,Hanako said: Julian didn't say ruefully that Brandon broke his laptop.,4,7870,7,say ruefully,,
1204,condition1,1,1,say,Hanako said: Helen didn't say that Omar had dinner with his manager.,10,4844,8,say,,
1204,condition1,1,1,filler_good,Hanako said: Grace didn't expect that Maddie would call her roommate.,106,5714,9,expect,,
1204,condition1,0,1,filler_bad,Hanako said: Rui didn't insist that Rob and Marc cut the bread. ,114,4298,10,insist,,
1204,condition1,1,1,filler_good,Hanako said: Danny didn't guess that Jacy rented the truck.,107,5900,11,guess,,
1204,condition1,0,1,filler_bad,Hanako said: Kate didn't imply that Kevin and Paul drafted the letter.,113,4114,12,imply,,
1204,condition1,1,2,filler_good,Hanako said: Jess didn't think that Tony would visit George.,112,4914,13,think,,
1204,condition1,1,2,filler_good,Hanako said: Larry didn't suspect that Dana brought a gift.,108,2952,14,suspect,,
1204,condition1,0,2,say_adv,Hanako said: Emma didn't say wearily that Charlie saw the robber.,6,3568,15,say wearily,,
1204,condition1,1,2,say,Hanako said: Ronald didn't say that Tia brought her parents.,12,6860,16,say,,
1204,condition1,0,2,filler_bad,Hanako said: Ted didn't guess that the book about astronomy was on the shelf.,124,7100,17,guess,,
1204,condition1,0,2,filler_bad,Hanako said: Jake didn't think that Liz and Jason drank the beer. ,115,3794,18,think,,
1204,condition1,0,3,filler_bad,Hanako said: Matthew didn't expect that Frank and Lisa were in the office.,116,3315,19,expect,,
1204,condition1,1,3,say_adv,Hanako said: Igor didn't say sternly that Alex bought a birthday cake.,3,7132,20,say sternly,,
1204,condition1,0,3,filler_bad,Hanako said: Hannah didn't hope that the assistant to the director would give the presentation.,122,6670,21,hope,,
1204,condition1,1,3,filler_good,Hanako said: John didn't hope that Zack broke the plates.,109,5356,22,hope,,
1204,condition1,1,3,say,Hanako said: Ashley didn't say that Kevin lost the keys.,2,4836,23,say,,
1204,condition1,1,3,filler_good,Hanako said: Jamal didn't imply that Todd went out with Betty.,111,4082,24,imply,,
1204,condition1,0,4,filler_bad,Hanako said: Chandler didn't suggest that the agent of the guitarist would show up.,120,4348,25,suggest,,
1204,condition1,1,4,say,Hanako said: Ben didn't say that Hasan talked to the detectives.,8,3108,26,say,,
1204,condition1,0,4,say_adv,Hanako said: Tony didn't say loudly that Dan knew the professor.,5,3590,27,say loudly,,
1204,condition1,1,4,filler_good,Hanako said: Donald didn't suggest that Doug would invite the mayor.,102,2589,28,suggest,,
1204,condition1,1,4,filler_good,Hanako said: Charlie didn't reveal that Karen wrote a book.,104,2509,29,reveal,,
1204,condition1,0,4,filler_bad,Hanako said: Sally didn't suspect that Krisha's parents were moving to Texas.,123,3549,30,suspect,,
1204,condition1,0,5,say_adv,Hanako said: Bill didn't say bluntly that Yumi found the wallet.,7,5955,31,say bluntly,,
1204,condition1,1,5,filler_good,Hanako said: Tim didn't speculate that Julian ate the cupcake.,103,3699,32,speculate,,
1204,condition1,1,5,say,Hanako said: Ollie didn't say that Ming forgot her phone. ,9,3783,33,say,,
1204,condition1,1,5,filler_good,Hanako said: Howard didn't expect that Jennifer got a cat.,105,4015,34,expect,,
1204,condition1,0,5,filler_bad,Hanako said: Amy didn't believe that Carol's brother signed the contract.,119,4231,35,believe,,
1204,condition1,0,5,filler_bad,Hanako said: Laura didn't speculate that Karl and Nick cooked dinner.,117,3916,36,speculate,,
1247,condition1,0.98,practice,practice_acceptability_good_1,Hanako said: Fiona didn't buy pineapple.,201,,0,NA,0,
1247,condition1,0.01,practice,practice_accpetability_bad_2,Hanako said: Prisha doesn't speak Korean.,204,,0,NA,0,
1247,condition1,0.07,0,filler_bad,Hanako said: Helen didn't reveal that the assistant to the director would give the presentation.,122,14055,1,reveal,,
1247,condition1,0.85,0,filler_good,Hanako said: Fatima didn't suggest that Tony would visit George.,112,5917,2,suggest,,
1247,condition1,0.87,0,filler_good,Hanako said: Hannah didn't speculate that Todd went out with Betty.,111,5620,3,speculate,,
1247,condition1,0.19,0,say_adv,Hanako said: John didn't say dryly that Omar had dinner with his manager.,10,6366,4,say dryly,,
1247,condition1,0,0,filler_bad,Hanako said: Igor didn't expect that Judith and Laura would order pizza.,118,7678,5,expect,,
1247,condition1,0.31,0,say,Hanako said: Laura didn't say that Brandon broke his laptop.,4,8166,6,say,,
1247,condition1,0.62,1,filler_good,Hanako said: Emma didn't imply that Maddie would call her roommate.,106,5592,7,imply,,
1247,condition1,0.87,1,filler_good,Hanako said: Julian didn't suspect that Karen wrote a book.,104,4328,8,suspect,,
1247,condition1,0.4,1,say_adv,Hanako said: Matthew didn't say calmly that Tia brought her parents.,12,5959,9,say calmly,,
1247,condition1,0,1,filler_bad,Hanako said: Frankie didn't insist that Kevin and Paul drafted the letter.,113,6854,10,insist,,
1247,condition1,0,1,filler_bad,Hanako said: Danny didn't believe that the agent of the guitarist would show up.,120,6354,11,believe,,
1247,condition1,0.9,1,say,Hanako said: Ollie didn't say that Mary met with the lawyer.,1,6051,12,say,,
1247,condition1,0.54,2,say_adv,Hanako said: Tony didn't say bluntly that Hasan talked to the detectives.,8,7786,13,say bluntly,,
1247,condition1,0.93,2,filler_good,Hanako said: Nancy didn't think that Zack broke the plates.,109,5014,14,think,,
1247,condition1,0.73,2,say,Hanako said: Ashley didn't say that Yumi found the wallet.,7,7910,15,say,,
1247,condition1,0.91,2,filler_good,Hanako said: Amy didn't guess that Charlie received a message.,110,5128,16,guess,,
1247,condition1,0,2,filler_bad,Hanako said: Jessie didn't imply that Frank and Lisa were in the office.,116,7333,17,imply,,
1247,condition1,0,2,filler_bad,Hanako said: Grace didn't expect that Rob and Marc cut the bread. ,114,7195,18,expect,,
1247,condition1,0.06,3,filler_bad,Hanako said: Ben didn't suggest that Karl and Nick cooked dinner.,117,6050,19,suggest,,
1247,condition1,1,3,say,Hanako said: Donald didn't say that Dan knew the professor.,5,5020,20,say,,
1247,condition1,0.12,3,filler_bad,Hanako said: Larry didn't suspect that the book about astronomy was on the shelf.,124,6146,21,suspect,,
1247,condition1,0.88,3,filler_good,Hanako said: Howard didn't believe that George emailed the students.,101,5650,22,believe,,
1247,condition1,0.61,3,filler_good,Hanako said: Yash didn't expect that Julian ate the cupcake.,103,6350,23,expect,,
1247,condition1,0.53,3,say_adv,Hanako said: Jake didn't say ruefully that Ming forgot her phone. ,9,5604,24,say ruefully,,
1247,condition1,0.07,4,filler_bad,Hanako said: Chandler didn't guess that Liz and Jason drank the beer. ,115,9559,25,guess,,
1247,condition1,0.92,4,filler_good,Hanako said: Emily didn't insist that Jacy rented the truck.,107,7087,26,insist,,
1247,condition1,0.02,4,filler_bad,Hanako said: Sally didn't speculate that Carol's brother signed the contract.,119,5444,27,speculate,,
1247,condition1,0.46,4,say,Hanako said: Charlie didn't say that Charlie saw the robber.,6,10953,28,say,,
1247,condition1,0.92,4,filler_good,Hanako said: Tim didn't reveal that Dana brought a gift.,108,6877,29,reveal,,
1247,condition1,0.58,4,say_adv,Hanako said: Rui didn't say cheerfully that Kevin lost the keys.,2,6053,30,say cheerfully,,
1247,condition1,0.62,5,say_adv,Hanako said: Jamal didn't say softly that Penny won the lottery.,11,5589,31,say softly,,
1247,condition1,0.73,5,say,Hanako said: Ted didn't say that Alex bought a birthday cake.,3,5560,32,say,,
1247,condition1,0.03,5,filler_bad,Hanako said: Kate didn't hope that Eva's uncle should stay for dinner.,121,6314,33,hope,,
1247,condition1,0.82,5,filler_good,Hanako said: Ronald didn't expect that Doug would invite the mayor.,102,5332,34,expect,,
1247,condition1,0.8,5,filler_good,Hanako said: Jess didn't hope that Jennifer got a cat.,105,5202,35,hope,,
1247,condition1,0,5,filler_bad,Hanako said: Bill didn't think that Krisha's parents were moving to Texas.,123,5363,36,think,,
1176,condition1,0.87,practice,practice_acceptability_good_1,Hanako said: Fiona didn't buy pineapple.,201,,0,NA,0,
1176,condition1,0.17,practice,practice_accpetability_bad_2,Hanako said: Prisha doesn't speak Korean.,204,,0,NA,0,
1176,condition1,0.99,0,say,Hanako said: Howard didn't say that Brandon broke his laptop.,4,5999,1,say,,
1176,condition1,1,0,filler_bad,Hanako said: Emily didn't hope that Frank and Lisa were in the office.,116,4581,2,hope,,
1176,condition1,0.94,0,say_adv,Hanako said: Frankie didn't say sternly that Penny won the lottery.,11,8734,3,say sternly,,
1176,condition1,1,0,filler_good,Hanako said: Fatima didn't reveal that Tony would visit George.,112,6032,4,reveal,,
1176,condition1,1,0,filler_good,Hanako said: Laura didn't hope that Charlie received a message.,110,4150,5,hope,,
1176,condition1,0.28,0,filler_bad,Hanako said: Tony didn't guess that Carol's brother signed the contract.,119,12504,6,guess,,
1176,condition1,1,1,filler_good,Hanako said: Ashley didn't suspect that Doug would invite the mayor.,102,4932,7,suspect,,
1176,condition1,1,1,filler_good,Hanako said: Ted didn't expect that Dana brought a gift.,108,3365,8,expect,,
1176,condition1,0.33,1,say,Hanako said: Tim didn't say that Dan knew the professor.,5,6532,9,say,,
1176,condition1,0.05,1,filler_bad,Hanako said: Jessie didn't suggest that Rob and Marc cut the bread. ,114,8367,10,suggest,,
1176,condition1,0.7,1,filler_bad,Hanako said: Ben didn't reveal that the agent of the guitarist would show up.,120,9285,11,reveal,,
1176,condition1,0.79,1,say_adv,Hanako said: Grace didn't say calmly that Alex bought a birthday cake.,3,9631,12,say calmly,,
1176,condition1,1,2,filler_good,Hanako said: Donald didn't speculate that Jacy rented the truck.,107,3916,13,speculate,,
1176,condition1,1,2,say,Hanako said: Rui didn't say that Yumi found the wallet.,7,4550,14,say,,
1176,condition1,0.96,2,filler_good,Hanako said: Ronald didn't believe that Zack broke the plates.,109,9421,15,believe,,
1176,condition1,0.31,2,say_adv,Hanako said: Julian didn't say wearily that Hasan talked to the detectives.,8,7228,16,say wearily,,
1176,condition1,0.02,2,filler_bad,Hanako said: Hannah didn't expect that Liz and Jason drank the beer. ,115,4950,17,expect,,
1176,condition1,0.01,2,filler_bad,Hanako said: Jamal didn't believe that Kevin and Paul drafted the letter.,113,4766,18,believe,,
1176,condition1,0.18,3,filler_bad,Hanako said: Jess didn't speculate that the assistant to the director would give the presentation.,122,9151,19,speculate,,
1176,condition1,1,3,say,Hanako said: Kate didn't say that Kevin lost the keys.,2,5600,20,say,,
1176,condition1,0.82,3,say_adv,Hanako said: Yash didn't say dryly that Omar had dinner with his manager.,10,6183,21,say dryly,,
1176,condition1,0.09,3,filler_bad,Hanako said: Ollie didn't imply that the book about astronomy was on the shelf.,124,10102,22,imply,,
1176,condition1,0.98,3,filler_good,Hanako said: Charlie didn't think that George emailed the students.,101,8816,23,think,,
1176,condition1,0.97,3,filler_good,Hanako said: Igor didn't suggest that Karen wrote a book.,104,3880,24,suggest,,
1176,condition1,0.94,4,filler_good,Hanako said: Chandler didn't insist that Todd went out with Betty.,111,9117,25,insist,,
1176,condition1,0.99,4,filler_good,Hanako said: Matthew didn't guess that Julian ate the cupcake.,103,3250,26,guess,,
1176,condition1,0.81,4,say,Hanako said: Amy didn't say that Mary met with the lawyer.,1,8116,27,say,,
1176,condition1,0.03,4,filler_bad,Hanako said: Helen didn't insist that Karl and Nick cooked dinner.,117,4601,28,insist,,
1176,condition1,0.94,4,say_adv,Hanako said: Danny didn't say quietly that Ming forgot her phone. ,9,4633,29,say quietly,,
1176,condition1,0.02,4,filler_bad,Hanako said: Jake didn't suspect that Judith and Laura would order pizza.,118,5200,30,suspect,,
1176,condition1,1,5,filler_good,Hanako said: Bill didn't expect that Jennifer got a cat.,105,3617,31,expect,,
1176,condition1,0.41,5,say_adv,Hanako said: John didn't say bluntly that Charlie saw the robber.,6,7284,32,say bluntly,,
1176,condition1,0.23,5,filler_bad,Hanako said: Emma didn't expect that Eva's uncle should stay for dinner.,121,9416,33,expect,,
1176,condition1,0.3,5,filler_bad,Hanako said: Nancy didn't think that Krisha's parents were moving to Texas.,123,6702,34,think,,
1176,condition1,1,5,filler_good,Hanako said: Sally didn't imply that Maddie would call her roommate.,106,3264,35,imply,,
1176,condition1,1,5,say,Hanako said: Larry didn't say that Tia brought her parents.,12,9119,36,say,,
1206,condition1,0.95,practice,practice_acceptability_good_1,Hanako said: Fiona didn't buy pineapple.,201,,0,NA,0,
1206,condition1,0,practice,practice_accpetability_bad_2,Hanako said: Prisha doesn't speak Korean.,204,,0,NA,0,
1206,condition1,1,0,filler_good,Hanako said: Jamal didn't reveal that Doug would invite the mayor.,102,12946,1,reveal,,
1206,condition1,0.06,0,filler_bad,Hanako said: Tony didn't think that Kevin and Paul drafted the letter.,113,11698,2,think,,
1206,condition1,0.21,0,say_adv,Hanako said: Ollie didn't say wistfully that Ming forgot her phone. ,9,11560,3,say wistfully,,
1206,condition1,0.2,0,say,Hanako said: Fatima didn't say that Charlie saw the robber.,6,11180,4,say,,
1206,condition1,0.22,0,filler_bad,Hanako said: Hannah didn't expect that Rob and Marc cut the bread. ,114,6465,5,expect,,
1206,condition1,0.98,0,filler_good,Hanako said: Ted didn't speculate that Todd went out with Betty.,111,10118,6,speculate,,
1206,condition1,0.05,1,filler_bad,Hanako said: Rui didn't imply that Karl and Nick cooked dinner.,117,12474,7,imply,,
1206,condition1,0.95,1,filler_good,Hanako said: Matthew didn't imply that Julian ate the cupcake.,103,6950,8,imply,,
1206,condition1,0.93,1,say,Hanako said: Frankie didn't say that Tia brought her parents.,12,10104,9,say,,
1206,condition1,0.08,1,filler_bad,Hanako said: Jake didn't insist that the agent of the guitarist would show up.,120,10191,10,insist,,
1206,condition1,0.17,1,say_adv,Hanako said: Amy didn't say quietly that Brandon broke his laptop.,4,11622,11,say quietly,,
1206,condition1,0.97,1,filler_good,Hanako said: John didn't guess that George emailed the students.,101,12504,12,guess,,
1206,condition1,0.85,2,say,Hanako said: Nancy didn't say that Mary met with the lawyer.,1,15201,13,say,,
1206,condition1,0.93,2,filler_good,Hanako said: Ronald didn't hope that Maddie would call her roommate.,106,8076,14,hope,,
1206,condition1,0.9,2,say_adv,Hanako said: Emily didn't say softly that Penny won the lottery.,11,7696,15,say softly,,
1206,condition1,0.07,2,filler_bad,Hanako said: Ben didn't suggest that Carol's brother signed the contract.,119,10354,16,suggest,,
1206,condition1,0.97,2,filler_good,Hanako said: Yash didn't think that Zack broke the plates.,109,5565,17,think,,
1206,condition1,0.02,2,filler_bad,Hanako said: Ashley didn't believe that the book about astronomy was on the shelf.,124,6624,18,believe,,
1206,condition1,0.89,3,filler_good,Hanako said: Emma didn't expect that Tony would visit George.,112,37711,19,expect,,
1206,condition1,0.07,3,filler_bad,Hanako said: Laura didn't hope that Eva's uncle should stay for dinner.,121,9055,20,hope,,
1206,condition1,0.03,3,filler_bad,Hanako said: Larry didn't reveal that the assistant to the director would give the presentation.,122,7040,21,reveal,,
1206,condition1,0.97,3,say,Hanako said: Jessie didn't say that Yumi found the wallet.,7,8368,22,say,,
1206,condition1,0.82,3,say_adv,Hanako said: Helen didn't say sternly that Dan knew the professor.,5,6495,23,say sternly,,
1206,condition1,0.94,3,filler_good,Hanako said: Danny didn't believe that Jennifer got a cat.,105,5310,24,believe,,
1206,condition1,0.07,4,filler_bad,Hanako said: Kate didn't expect that Judith and Laura would order pizza.,118,7490,25,expect,,
1206,condition1,0.92,4,say,Hanako said: Julian didn't say that Omar had dinner with his manager.,10,6222,26,say,,
1206,condition1,0.08,4,filler_good,Hanako said: Bill didn't expect that Karen wrote a book.,104,6399,27,expect,,
1206,condition1,0.86,4,filler_good,Hanako said: Tim didn't insist that Dana brought a gift.,108,8173,28,insist,,
1206,condition1,0.69,4,say_adv,Hanako said: Charlie didn't say ruefully that Kevin lost the keys.,2,9313,29,say ruefully,,
1206,condition1,0.06,4,filler_bad,Hanako said: Chandler didn't speculate that Frank and Lisa were in the office.,116,5969,30,speculate,,
1206,condition1,0.84,5,filler_good,Hanako said: Sally didn't suggest that Jacy rented the truck.,107,9216,31,suggest,,
1206,condition1,0.94,5,filler_good,Hanako said: Donald didn't suspect that Charlie received a message.,110,13248,32,suspect,,
1206,condition1,0.03,5,filler_bad,Hanako said: Jess didn't suspect that Krisha's parents were moving to Texas.,123,12193,33,suspect,,
1206,condition1,0.83,5,say,Hanako said: Howard didn't say that Alex bought a birthday cake.,3,5917,34,say,,
1206,condition1,0.02,5,filler_bad,Hanako said: Igor didn't guess that Liz and Jason drank the beer. ,115,5407,35,guess,,
1206,condition1,0.1,5,say_adv,Hanako said: Grace didn't say dryly that Hasan talked to the detectives.,8,12000,36,say dryly,,
1182,condition1,0.94,practice,practice_acceptability_good_1,Hanako said: Fiona didn't buy pineapple.,201,,0,NA,0,
1182,condition1,0.05,practice,practice_accpetability_bad_2,Hanako said: Prisha doesn't speak Korean.,204,,0,NA,2,
1182,condition1,0.94,0,say,Hanako said: Jessie didn't say that Brandon broke his laptop.,4,8185,1,say,,
1182,condition1,0.97,0,filler_good,Hanako said: Bill didn't suggest that Todd went out with Betty.,111,15564,2,suggest,,
1182,condition1,0.96,0,filler_good,Hanako said: Hannah didn't speculate that Karen wrote a book.,104,9784,3,speculate,,
1182,condition1,0.12,0,filler_bad,Hanako said: Nancy didn't reveal that Rob and Marc cut the bread. ,114,12666,4,reveal,,
1182,condition1,0.27,0,filler_bad,Hanako said: Rui didn't speculate that Frank and Lisa were in the office.,116,10386,5,speculate,,
1182,condition1,0.6,0,say_adv,Hanako said: Grace didn't say softly that Penny won the lottery.,11,9684,6,say softly,,
1182,condition1,0.9,1,filler_good,Hanako said: Yash didn't reveal that George emailed the students.,101,9499,7,reveal,,
1182,condition1,0.09,1,filler_bad,Hanako said: Tony didn't insist that the agent of the guitarist would show up.,120,9066,8,insist,,
1182,condition1,0.93,1,say,Hanako said: Donald didn't say that Omar had dinner with his manager.,10,6550,9,say,,
1182,condition1,0.06,1,filler_bad,Hanako said: John didn't suspect that Kevin and Paul drafted the letter.,113,6901,10,suspect,,
1182,condition1,0.46,1,filler_good,Hanako said: Emily didn't expect that Zack broke the plates.,109,13435,11,expect,,
1182,condition1,0.53,1,say_adv,Hanako said: Charlie didn't say bluntly that Hasan talked to the detectives.,8,9217,12,say bluntly,,
1182,condition1,0.78,2,filler_good,Hanako said: Danny didn't guess that Charlie received a message.,110,6249,13,guess,,
1182,condition1,0.29,2,say_adv,Hanako said: Jake didn't say calmly that Tia brought her parents.,12,13984,14,say calmly,,
1182,condition1,0.85,2,say,Hanako said: Tim didn't say that Alex bought a birthday cake.,3,10551,15,say,,
1182,condition1,0.11,2,filler_bad,Hanako said: Fatima didn't expect that Liz and Jason drank the beer. ,115,13385,16,expect,,
1182,condition1,0.14,2,filler_bad,Hanako said: Julian didn't imply that Krisha's parents were moving to Texas.,123,13435,17,imply,,
1182,condition1,0.86,2,filler_good,Hanako said: Ted didn't imply that Maddie would call her roommate.,106,13848,18,imply,,
1182,condition1,0.82,3,say,Hanako said: Laura didn't say that Ming forgot her phone. ,9,10936,19,say,,
1182,condition1,0.85,3,filler_good,Hanako said: Emma didn't hope that Jacy rented the truck.,107,8332,20,hope,,
1182,condition1,0.67,3,say_adv,Hanako said: Kate didn't say ruefully that Mary met with the lawyer.,1,6551,21,say ruefully,,
1182,condition1,0.01,3,filler_bad,Hanako said: Jess didn't think that Judith and Laura would order pizza.,118,8832,22,think,,
1182,condition1,0.85,3,filler_good,Hanako said: Chandler didn't expect that Dana brought a gift.,108,6686,23,expect,,
1182,condition1,0.05,3,filler_bad,Hanako said: Larry didn't guess that Eva's uncle should stay for dinner.,121,13416,24,guess,,
1182,condition1,0.07,4,filler_bad,Hanako said: Howard didn't hope that Karl and Nick cooked dinner.,117,8684,25,hope,,
1182,condition1,0.97,4,filler_good,Hanako said: Helen didn't insist that Jennifer got a cat.,105,4985,26,insist,,
1182,condition1,0.96,4,filler_bad,Hanako said: Jamal didn't suggest that the book about astronomy was on the shelf.,124,8851,27,suggest,,
1182,condition1,0.98,4,say_adv,Hanako said: Ashley didn't say wearily that Charlie saw the robber.,6,5519,28,say wearily,,
1182,condition1,1,4,say,Hanako said: Ollie didn't say that Dan knew the professor.,5,5978,29,say,,
1182,condition1,0.92,4,filler_good,Hanako said: Sally didn't suspect that Tony would visit George.,112,7703,30,suspect,,
1182,condition1,0.93,5,say,Hanako said: Ben didn't say that Yumi found the wallet.,7,7401,31,say,,
1182,condition1,0.07,5,filler_bad,Hanako said: Ronald didn't believe that Carol's brother signed the contract.,119,7949,32,believe,,
1182,condition1,0.73,5,filler_good,Hanako said: Amy didn't think that Julian ate the cupcake.,103,7133,33,think,,
1182,condition1,0.76,5,say_adv,Hanako said: Matthew didn't say gently that Kevin lost the keys.,2,6367,34,say gently,,
1182,condition1,0.78,5,filler_good,Hanako said: Frankie didn't believe that Doug would invite the mayor.,102,5484,35,believe,,
1182,condition1,0.09,5,filler_bad,Hanako said: Igor didn't expect that the assistant to the director would give the presentation.,122,10933,36,expect,,
1177,condition1,0.99,practice,practice_acceptability_good_1,Hanako said: Fiona didn't buy pineapple.,201,,0,NA,0,
1177,condition1,0.05,practice,practice_accpetability_bad_2,Hanako said: Prisha doesn't speak Korean.,204,,0,NA,0,
1177,condition1,0.03,0,say_adv,Hanako said: Rui didn't say loudly that Ming forgot her phone. ,9,17845,1,say loudly,,
1177,condition1,0.84,0,say,Hanako said: Jess didn't say that Yumi found the wallet.,7,4981,2,say,,
1177,condition1,0.06,0,filler_bad,Hanako said: Laura didn't imply that Liz and Jason drank the beer. ,115,6831,3,imply,,
1177,condition1,0.99,0,filler_good,Hanako said: Ashley didn't guess that Zack broke the plates.,109,6363,4,guess,,
1177,condition1,0.07,0,filler_bad,Hanako said: Kate didn't reveal that the assistant to the director would give the presentation.,122,10397,5,reveal,,
1177,condition1,0.95,0,filler_good,Hanako said: Jake didn't hope that Dana brought a gift.,108,14595,6,hope,,
1177,condition1,0.97,1,filler_good,Hanako said: Matthew didn't speculate that Julian ate the cupcake.,103,11390,7,speculate,,
1177,condition1,0.49,1,say,Hanako said: Grace didn't say that Kevin lost the keys.,2,13137,8,say,,
1177,condition1,0.06,1,filler_bad,Hanako said: Igor didn't think that the agent of the guitarist would show up.,120,10398,9,think,,
1177,condition1,0.05,1,say_adv,Hanako said: Nancy didn't say sternly that Tia brought her parents.,12,6013,10,say sternly,,
1177,condition1,0.06,1,filler_bad,Hanako said: Ben didn't suggest that the book about astronomy was on the shelf.,124,12580,11,suggest,,
1177,condition1,0.5,1,filler_good,Hanako said: Sally didn't believe that Doug would invite the mayor.,102,15663,12,believe,,
1177,condition1,0.27,2,say_adv,Hanako said: Bill didn't say quietly that Dan knew the professor.,5,10744,13,say quietly,,
1177,condition1,0.95,2,filler_good,Hanako said: Howard didn't suspect that Charlie received a message.,110,5622,14,suspect,,
1177,condition1,0.1,2,filler_bad,Hanako said: Chandler didn't speculate that Carol's brother signed the contract.,119,7827,15,speculate,,
1177,condition1,0.13,2,filler_bad,Hanako said: Yash didn't insist that Frank and Lisa were in the office.,116,13756,16,insist,,
1177,condition1,0.05,2,filler_good,Hanako said: John didn't expect that Jacy rented the truck.,107,32114,17,expect,,
1177,condition1,0.77,2,say,Hanako said: Jessie didn't say that Omar had dinner with his manager.,10,8670,18,say,,
1177,condition1,0.97,3,filler_good,Hanako said: Frankie didn't reveal that Jennifer got a cat.,105,5923,19,reveal,,
1177,condition1,0.55,3,say,Hanako said: Fatima didn't say that Alex bought a birthday cake.,3,12320,20,say,,
1177,condition1,0.04,3,say_adv,Hanako said: Julian didn't say bluntly that Hasan talked to the detectives.,8,49821,21,say bluntly,,
1177,condition1,0.03,3,filler_bad,Hanako said: Tony didn't hope that Karl and Nick cooked dinner.,117,10656,22,hope,,
1177,condition1,0.03,3,filler_good,Hanako said: Tim didn't expect that Karen wrote a book.,104,7939,23,expect,,
1177,condition1,0.03,3,filler_bad,Hanako said: Jamal didn't believe that Rob and Marc cut the bread. ,114,9210,24,believe,,
1177,condition1,0.97,4,filler_good,Hanako said: Danny didn't imply that Tony would visit George.,112,10265,25,imply,,
1177,condition1,0.08,4,say_adv,Hanako said: Amy didn't say cheerfully that Penny won the lottery.,11,8986,26,say cheerfully,,
1177,condition1,0.97,4,filler_good,Hanako said: Emily didn't think that Todd went out with Betty.,111,5930,27,think,,
1177,condition1,0.01,4,filler_bad,Hanako said: Larry didn't expect that Judith and Laura would order pizza.,118,14566,28,expect,,
1177,condition1,0.04,4,filler_bad,Hanako said: Charlie didn't suspect that Kevin and Paul drafted the letter.,113,8385,29,suspect,,
1177,condition1,0.74,4,say,Hanako said: Donald didn't say that Charlie saw the robber.,6,11232,30,say,,
1177,condition1,0.96,5,filler_good,Hanako said: Ollie didn't insist that Maddie would call her roommate.,106,7897,31,insist,,
1177,condition1,0.99,5,filler_good,Hanako said: Ronald didn't suggest that George emailed the students.,101,9776,32,suggest,,
1177,condition1,0.13,5,say,Hanako said: Ted didn't say that Brandon broke his laptop.,4,10164,33,say,,
1177,condition1,0,5,say_adv,Hanako said: Hannah didn't say wearily that Mary met with the lawyer.,1,7168,34,say wearily,,
1177,condition1,0.03,5,filler_bad,Hanako said: Helen didn't expect that Krisha's parents were moving to Texas.,123,41700,35,expect,,
1177,condition1,0.05,5,filler_bad,Hanako said: Emma didn't guess that Eva's uncle should stay for dinner.,121,7685,36,guess,,
1219,condition1,0.95,practice,practice_acceptability_good_1,Hanako said: Fiona didn't buy pineapple.,201,,0,NA,0,
1219,condition1,0.22,practice,practice_accpetability_bad_2,Hanako said: Prisha doesn't speak Korean.,204,,0,NA,0,
1219,condition1,0.49,0,filler_bad,Hanako said: Sally didn't reveal that the assistant to the director would give the presentation.,122,15361,1,reveal,,
1219,condition1,0.91,0,filler_good,Hanako said: Nancy didn't hope that Zack broke the plates.,109,8458,2,hope,,
1219,condition1,0.39,0,filler_bad,Hanako said: Jake didn't suspect that Carol's brother signed the contract.,119,8977,3,suspect,,
1219,condition1,0.53,0,say,Hanako said: Kate didn't say that Hasan talked to the detectives.,8,8262,4,say,,
1219,condition1,0.73,0,filler_good,Hanako said: Emily didn't insist that Karen wrote a book.,104,6423,5,insist,,
1219,condition1,0.71,0,say_adv,Hanako said: Chandler didn't say quietly that Brandon broke his laptop.,4,8526,6,say quietly,,
1219,condition1,0.77,1,say,Hanako said: Matthew didn't say that Ming forgot her phone. ,9,9998,7,say,,
1219,condition1,0.83,1,filler_good,Hanako said: Jamal didn't imply that George emailed the students.,101,9231,8,imply,,
1219,condition1,0.52,1,say_adv,Hanako said: Ronald didn't say dryly that Mary met with the lawyer.,1,11699,9,say dryly,,
1219,condition1,0.32,1,filler_bad,Hanako said: Ted didn't speculate that Kevin and Paul drafted the letter.,113,9293,10,speculate,,
1219,condition1,0.78,1,filler_good,Hanako said: Frankie didn't reveal that Jennifer got a cat.,105,8211,11,reveal,,
1219,condition1,0.35,1,filler_bad,Hanako said: Ben didn't imply that Judith and Laura would order pizza.,118,8211,12,imply,,
1219,condition1,0.69,2,filler_good,Hanako said: Ollie didn't expect that Maddie would call her roommate.,106,6425,13,expect,,
1219,condition1,0.33,2,filler_bad,Hanako said: Jess didn't expect that Krisha's parents were moving to Texas.,123,7409,14,expect,,
1219,condition1,0.26,2,filler_bad,Hanako said: Tony didn't hope that Eva's uncle should stay for dinner.,121,8247,15,hope,,
1219,condition1,0.76,2,filler_good,Hanako said: Helen didn't speculate that Dana brought a gift.,108,6457,16,speculate,,
1219,condition1,0.68,2,say,Hanako said: Danny didn't say that Alex bought a birthday cake.,3,8547,17,say,,
1219,condition1,0.72,2,say_adv,Hanako said: Charlie didn't say wearily that Dan knew the professor.,5,6959,18,say wearily,,
1219,condition1,0.54,3,say_adv,Hanako said: Laura didn't say wistfully that Omar had dinner with his manager.,10,8778,19,say wistfully,,
1219,condition1,0.39,3,filler_bad,Hanako said: John didn't think that the book about astronomy was on the shelf.,124,9125,20,think,,
1219,condition1,0.82,3,filler_good,Hanako said: Grace didn't suspect that Julian ate the cupcake.,103,5540,21,suspect,,
1219,condition1,0.33,3,filler_bad,Hanako said: Larry didn't insist that Liz and Jason drank the beer. ,115,9079,22,insist,,
1219,condition1,0.8,3,filler_good,Hanako said: Yash didn't suggest that Todd went out with Betty.,111,7092,23,suggest,,
1219,condition1,0.61,3,say,Hanako said: Igor didn't say that Penny won the lottery.,11,6941,24,say,,
1219,condition1,0.75,4,filler_good,Hanako said: Howard didn't guess that Charlie received a message.,110,6659,25,guess,,
1219,condition1,0.88,4,filler_good,Hanako said: Amy didn't expect that Tony would visit George.,112,6644,26,expect,,
1219,condition1,0.63,4,say,Hanako said: Emma didn't say that Yumi found the wallet.,7,8431,27,say,,
1219,condition1,0.34,4,filler_bad,Hanako said: Julian didn't believe that the agent of the guitarist would show up.,120,6723,28,believe,,
1219,condition1,0.28,4,filler_bad,Hanako said: Rui didn't guess that Frank and Lisa were in the office.,116,9245,29,guess,,
1219,condition1,0.74,4,say_adv,Hanako said: Bill didn't say cheerfully that Kevin lost the keys.,2,6523,30,say cheerfully,,
1219,condition1,0.46,5,say_adv,Hanako said: Jessie didn't say bluntly that Tia brought her parents.,12,10182,31,say bluntly,,
1219,condition1,0.79,5,filler_good,Hanako said: Hannah didn't think that Doug would invite the mayor.,102,9610,32,think,,
1219,condition1,0.33,5,filler_bad,Hanako said: Ashley didn't expect that Rob and Marc cut the bread. ,114,6657,33,expect,,
1219,condition1,0.29,5,filler_bad,Hanako said: Donald didn't suggest that Karl and Nick cooked dinner.,117,8058,34,suggest,,
1219,condition1,0.84,5,filler_good,Hanako said: Tim didn't believe that Jacy rented the truck.,107,6058,35,believe,,
1219,condition1,0.69,5,say,Hanako said: Fatima didn't say that Charlie saw the robber.,6,6074,36,say,,
1239,condition1,0.96,practice,practice_acceptability_good_1,Hanako said: Fiona didn't buy pineapple.,201,,0,NA,0,
1239,condition1,0.04,practice,practice_accpetability_bad_2,Hanako said: Prisha doesn't speak Korean.,204,,0,NA,0,
1239,condition1,0.15,0,filler_bad,Hanako said: Julian didn't imply that Karl and Nick cooked dinner.,117,26753,1,imply,,
1239,condition1,0.82,0,filler_good,Hanako said: Ben didn't suggest that Todd went out with Betty.,111,20039,2,suggest,,
1239,condition1,0.77,0,filler_good,Hanako said: Jake didn't guess that Zack broke the plates.,109,17085,3,guess,,
1239,condition1,0.13,0,filler_bad,Hanako said: Emily didn't guess that Judith and Laura would order pizza.,118,16899,4,guess,,
1239,condition1,0.5,0,say_adv,Hanako said: Nancy didn't say bluntly that Yumi found the wallet.,7,35518,5,say bluntly,,
1239,condition1,0.67,0,say,Hanako said: Rui didn't say that Charlie saw the robber.,6,22366,6,say,,
1239,condition1,0.19,1,filler_bad,Hanako said: Grace didn't hope that Rob and Marc cut the bread. ,114,18649,7,hope,,
1239,condition1,0.24,1,filler_bad,Hanako said: Chandler didn't reveal that the agent of the guitarist would show up.,120,11517,8,reveal,,
1239,condition1,0.79,1,say,Hanako said: Emma didn't say that Dan knew the professor.,5,14917,9,say,,
1239,condition1,0.6,1,say_adv,Hanako said: Donald didn't say sternly that Kevin lost the keys.,2,19483,10,say sternly,,
1239,condition1,0.86,1,filler_good,Hanako said: Howard didn't reveal that Jennifer got a cat.,105,10198,11,reveal,,
1239,condition1,0.87,1,filler_good,Hanako said: Tim didn't speculate that Dana brought a gift.,108,10451,12,speculate,,
1239,condition1,0.85,2,say,Hanako said: Ted didn't say that Mary met with the lawyer.,1,15249,13,say,,
1239,condition1,0.23,2,filler_bad,Hanako said: Amy didn't believe that the assistant to the director would give the presentation.,122,22732,14,believe,,
1239,condition1,0.64,2,filler_good,Hanako said: Igor didn't hope that Maddie would call her roommate.,106,13516,15,hope,,
1239,condition1,0.81,2,filler_good,Hanako said: Kate didn't imply that Doug would invite the mayor.,102,12999,16,imply,,
1239,condition1,0.64,2,say_adv,Hanako said: Sally didn't say quietly that Tia brought her parents.,12,27250,17,say quietly,,
1239,condition1,0.28,2,filler_bad,Hanako said: Charlie didn't suspect that Liz and Jason drank the beer. ,115,23150,18,suspect,,
1239,condition1,0.83,3,filler_good,Hanako said: Frankie didn't expect that Karen wrote a book.,104,6016,19,expect,,
1239,condition1,0.59,3,say_adv,Hanako said: Tony didn't say cheerfully that Ming forgot her phone. ,9,19850,20,say cheerfully,,
1239,condition1,0.83,3,say,Hanako said: Bill didn't say that Hasan talked to the detectives.,8,13549,21,say,,
1239,condition1,0.26,3,filler_bad,Hanako said: Jessie didn't expect that Carol's brother signed the contract.,119,16049,22,expect,,
1239,condition1,0.26,3,filler_bad,Hanako said: Ronald didn't expect that Kevin and Paul drafted the letter.,113,9783,23,expect,,
1239,condition1,0.79,3,filler_good,Hanako said: Ashley didn't suspect that Jacy rented the truck.,107,9633,24,suspect,,
1239,condition1,0.46,4,filler_bad,Hanako said: Danny didn't speculate that the book about astronomy was on the shelf.,124,24683,25,speculate,,
1239,condition1,0.24,4,filler_bad,Hanako said: Jess didn't suggest that Eva's uncle should stay for dinner.,121,17715,26,suggest,,
1239,condition1,0.81,4,say,Hanako said: Ollie didn't say that Brandon broke his laptop.,4,7985,27,say,,
1239,condition1,0.8,4,filler_good,Hanako said: Yash didn't think that Tony would visit George.,112,10416,28,think,,
1239,condition1,0.83,4,filler_good,Hanako said: Laura didn't believe that George emailed the students.,101,9484,29,believe,,
1239,condition1,0.73,4,say_adv,Hanako said: John didn't say dryly that Penny won the lottery.,11,8649,30,say dryly,,
1239,condition1,0.21,5,filler_bad,Hanako said: Hannah didn't insist that Krisha's parents were moving to Texas.,123,22016,31,insist,,
1239,condition1,0.78,5,say,Hanako said: Jamal didn't say that Alex bought a birthday cake.,3,11648,32,say,,
1239,condition1,0.79,5,say_adv,Hanako said: Matthew didn't say calmly that Omar had dinner with his manager.,10,11551,33,say calmly,,
1239,condition1,0.76,5,filler_good,Hanako said: Larry didn't expect that Julian ate the cupcake.,103,17399,34,expect,,
1239,condition1,0.8,5,filler_good,Hanako said: Helen didn't insist that Charlie received a message.,110,10983,35,insist,,
1239,condition1,0.21,5,filler_bad,Hanako said: Fatima didn't think that Frank and Lisa were in the office.,116,8500,36,think,,
1200,condition1,0.64,practice,practice_acceptability_good_1,Hanako said: Fiona didn't buy pineapple.,201,,0,NA,0,
1200,condition1,0.05,practice,practice_accpetability_bad_2,Hanako said: Prisha doesn't speak Korean.,204,,0,NA,0,
1200,condition1,0.17,0,filler_bad,Hanako said: Amy didn't guess that Kevin and Paul drafted the letter.,113,9885,1,guess,,
1200,condition1,0,0,filler_bad,Hanako said: Kate didn't reveal that Frank and Lisa were in the office.,116,7322,2,reveal,,
1200,condition1,0.78,0,say_adv,Hanako said: Jessie didn't say ruefully that Dan knew the professor.,5,7513,3,say ruefully,,
1200,condition1,1,0,filler_good,Hanako said: Yash didn't suggest that Julian ate the cupcake.,103,5406,4,suggest,,
1200,condition1,1,0,say,Hanako said: Igor didn't say that Penny won the lottery.,11,4456,5,say,,
1200,condition1,1,0,filler_good,Hanako said: Hannah didn't speculate that Doug would invite the mayor.,102,5158,6,speculate,,
1200,condition1,0.19,1,filler_bad,Hanako said: Helen didn't think that the agent of the guitarist would show up.,120,7187,7,think,,
1200,condition1,1,1,say,Hanako said: Bill didn't say that Ming forgot her phone. ,9,4464,8,say,,
1200,condition1,0.49,1,filler_good,Hanako said: Jake didn't expect that Zack broke the plates.,109,8764,9,expect,,
1200,condition1,0.82,1,filler_good,Hanako said: Grace didn't guess that Charlie received a message.,110,5532,10,guess,,
1200,condition1,0.1,1,say_adv,Hanako said: Larry didn't say gently that Tia brought her parents.,12,6227,11,say gently,,
1200,condition1,0.21,1,filler_bad,Hanako said: Julian didn't hope that the book about astronomy was on the shelf.,124,10344,12,hope,,
1200,condition1,0.17,2,filler_bad,Hanako said: Nancy didn't imply that Judith and Laura would order pizza.,118,7516,13,imply,,
1200,condition1,1,2,filler_good,Hanako said: Ted didn't imply that Tony would visit George.,112,4092,14,imply,,
1200,condition1,0.15,2,filler_bad,Hanako said: John didn't speculate that Liz and Jason drank the beer. ,115,5848,15,speculate,,
1200,condition1,0.88,2,say,Hanako said: Emily didn't say that Charlie saw the robber.,6,3924,16,say,,
1200,condition1,0.76,2,say_adv,Hanako said: Jamal didn't say dryly that Yumi found the wallet.,7,7244,17,say dryly,,
1200,condition1,0.81,2,filler_good,Hanako said: Ollie didn't suspect that Todd went out with Betty.,111,4832,18,suspect,,
1200,condition1,1,3,say,Hanako said: Ronald didn't say that Mary met with the lawyer.,1,9403,19,say,,
1200,condition1,0.1,3,filler_bad,Hanako said: Chandler didn't insist that Karl and Nick cooked dinner.,117,5856,20,insist,,
1200,condition1,0.66,3,filler_bad,Hanako said: Ben didn't suggest that Krisha's parents were moving to Texas.,123,11824,21,suggest,,
1200,condition1,0.82,3,say_adv,Hanako said: Danny didn't say loudly that Omar had dinner with his manager.,10,5959,22,say loudly,,
1200,condition1,0.91,3,filler_good,Hanako said: Howard didn't insist that Dana brought a gift.,108,6415,23,insist,,
1200,condition1,0.99,3,filler_good,Hanako said: Rui didn't reveal that Jennifer got a cat.,105,5600,24,reveal,,
1200,condition1,1,4,filler_good,Hanako said: Fatima didn't hope that Karen wrote a book.,104,3974,25,hope,,
1200,condition1,0.52,4,filler_bad,Hanako said: Frankie didn't expect that Carol's brother signed the contract.,119,6551,26,expect,,
1200,condition1,0.72,4,say_adv,Hanako said: Tim didn't say cheerfully that Hasan talked to the detectives.,8,7675,27,say cheerfully,,
1200,condition1,1,4,say,Hanako said: Tony didn't say that Kevin lost the keys.,2,4566,28,say,,
1200,condition1,0.91,4,filler_good,Hanako said: Ashley didn't expect that Maddie would call her roommate.,106,3814,29,expect,,
1200,condition1,0.15,4,filler_bad,Hanako said: Charlie didn't expect that Rob and Marc cut the bread. ,114,4406,30,expect,,
1200,condition1,0.93,5,say_adv,Hanako said: Jess didn't say wistfully that Brandon broke his laptop.,4,5029,31,say wistfully,,
1200,condition1,1,5,filler_good,Hanako said: Emma didn't think that George emailed the students.,101,5865,32,think,,
1200,condition1,1,5,say,Hanako said: Donald didn't say that Alex bought a birthday cake.,3,4934,33,say,,
1200,condition1,0.28,5,filler_bad,Hanako said: Laura didn't believe that the assistant to the director would give the presentation.,122,11258,34,believe,,
1200,condition1,0.52,5,filler_bad,Hanako said: Matthew didn't suspect that Eva's uncle should stay for dinner.,121,9363,35,suspect,,
1200,condition1,1,5,filler_good,Hanako said: Sally didn't believe that Jacy rented the truck.,107,4246,36,believe,,
1229,condition1,1,practice,practice_acceptability_good_1,Hanako said: Fiona didn't buy pineapple.,201,,0,NA,0,
1229,condition1,0,practice,practice_accpetability_bad_2,Hanako said: Prisha doesn't speak Korean.,204,,0,NA,0,
1229,condition1,0,0,filler_bad,Hanako said: Sally didn't imply that Carol's brother signed the contract.,119,10983,1,imply,,
1229,condition1,0.87,0,filler_good,Hanako said: Ollie didn't speculate that Todd went out with Betty.,111,11322,2,speculate,,
1229,condition1,0.23,0,filler_bad,Hanako said: Charlie didn't expect that the agent of the guitarist would show up.,120,11588,3,expect,,
1229,condition1,1,0,filler_good,Hanako said: Yash didn't insist that Jacy rented the truck.,107,5281,4,insist,,
1229,condition1,1,0,say,Hanako said: Jake didn't say that Tia brought her parents.,12,7249,5,say,,
1229,condition1,0.72,0,say_adv,Hanako said: John didn't say cheerfully that Dan knew the professor.,5,17849,6,say cheerfully,,
1229,condition1,0.85,1,say_adv,Hanako said: Emma didn't say gently that Hasan talked to the detectives.,8,5256,7,say gently,,
1229,condition1,0.17,1,filler_bad,Hanako said: Jamal didn't expect that Krisha's parents were moving to Texas.,123,14114,8,expect,,
1229,condition1,1,1,filler_good,Hanako said: Tim didn't guess that Zack broke the plates.,109,3753,9,guess,,
1229,condition1,0.01,1,filler_bad,Hanako said: Matthew didn't suggest that Rob and Marc cut the bread. ,114,5581,10,suggest,,
1229,condition1,0.92,1,filler_good,Hanako said: Chandler didn't expect that Tony would visit George.,112,14745,11,expect,,
1229,condition1,1,1,say,Hanako said: Frankie didn't say that Brandon broke his laptop.,4,4725,12,say,,
1229,condition1,0,2,filler_bad,Hanako said: Jess didn't hope that the book about astronomy was on the shelf.,124,7833,13,hope,,
1229,condition1,1,2,filler_good,Hanako said: Tony didn't reveal that Jennifer got a cat.,105,2851,14,reveal,,
1229,condition1,1,2,say_adv,Hanako said: Ben didn't say softly that Charlie saw the robber.,6,8346,15,say softly,,
1229,condition1,1,2,say,Hanako said: Ted didn't say that Alex bought a birthday cake.,3,7010,16,say,,
1229,condition1,1,2,filler_good,Hanako said: Ronald didn't suggest that George emailed the students.,101,3200,17,suggest,,
1229,condition1,0,2,filler_bad,Hanako said: Danny didn't reveal that Liz and Jason drank the beer. ,115,3312,18,reveal,,
1229,condition1,1,3,filler_good,Hanako said: Kate didn't imply that Doug would invite the mayor.,102,3865,19,imply,,
1229,condition1,0,3,filler_bad,Hanako said: Igor didn't guess that Karl and Nick cooked dinner.,117,7246,20,guess,,
1229,condition1,1,3,filler_good,Hanako said: Howard didn't believe that Karen wrote a book.,104,5017,21,believe,,
1229,condition1,0.07,3,filler_bad,Hanako said: Laura didn't speculate that the assistant to the director would give the presentation.,122,14261,22,speculate,,
1229,condition1,1,3,say,Hanako said: Grace didn't say that Ming forgot her phone. ,9,2900,23,say,,
1229,condition1,1,3,say_adv,Hanako said: Bill didn't say dryly that Yumi found the wallet.,7,4766,24,say dryly,,
1229,condition1,1,4,filler_good,Hanako said: Larry didn't hope that Charlie received a message.,110,5981,25,hope,,
1229,condition1,1,4,say_adv,Hanako said: Nancy didn't say wearily that Omar had dinner with his manager.,10,6845,26,say wearily,,
1229,condition1,0,4,filler_bad,Hanako said: Julian didn't believe that Eva's uncle should stay for dinner.,121,6424,27,believe,,
1229,condition1,0,4,filler_bad,Hanako said: Fatima didn't suspect that Judith and Laura would order pizza.,118,4227,28,suspect,,
1229,condition1,1,4,filler_good,Hanako said: Amy didn't suspect that Maddie would call her roommate.,106,3443,29,suspect,,
1229,condition1,1,4,say,Hanako said: Emily didn't say that Mary met with the lawyer.,1,3486,30,say,,
1229,condition1,1,5,say,Hanako said: Helen didn't say that Kevin lost the keys.,2,5671,31,say,,
1229,condition1,1,5,say_adv,Hanako said: Jessie didn't say ruefully that Penny won the lottery.,11,6342,32,say ruefully,,
1229,condition1,0,5,filler_bad,Hanako said: Donald didn't insist that Frank and Lisa were in the office.,116,4668,33,insist,,
1229,condition1,1,5,filler_good,Hanako said: Ashley didn't think that Dana brought a gift.,108,2821,34,think,,
1229,condition1,0,5,filler_bad,Hanako said: Hannah didn't think that Kevin and Paul drafted the letter.,113,4168,35,think,,
1229,condition1,1,5,filler_good,Hanako said: Rui didn't expect that Julian ate the cupcake.,103,3227,36,expect,,
1207,condition1,0.8,practice,practice_acceptability_good_1,Hanako said: Fiona didn't buy pineapple.,201,,0,NA,0,
1207,condition1,0.17,practice,practice_accpetability_bad_2,Hanako said: Prisha doesn't speak Korean.,204,,0,NA,0,
1207,condition1,0.01,0,filler_bad,Hanako said: Ben didn't expect that Judith and Laura would order pizza.,118,11191,1,expect,,
1207,condition1,0.6,0,say_adv,Hanako said: Jess didn't say wearily that Yumi found the wallet.,7,14455,2,say wearily,,
1207,condition1,0.09,0,filler_bad,Hanako said: Emily didn't hope that Karl and Nick cooked dinner.,117,33431,3,hope,,
1207,condition1,0.84,0,filler_good,Hanako said: Danny didn't expect that Julian ate the cupcake.,103,10479,4,expect,,
1207,condition1,0.89,0,say,Hanako said: Matthew didn't say that Charlie saw the robber.,6,10136,5,say,,
1207,condition1,0.92,0,filler_good,Hanako said: Tony didn't expect that Dana brought a gift.,108,6575,6,expect,,
1207,condition1,0.93,1,filler_good,Hanako said: Kate didn't imply that George emailed the students.,101,7280,7,imply,,
1207,condition1,0.01,1,filler_bad,Hanako said: Fatima didn't think that Liz and Jason drank the beer. ,115,10264,8,think,,
1207,condition1,0.87,1,say,Hanako said: Ronald didn't say that Mary met with the lawyer.,1,13463,9,say,,
1207,condition1,0.69,1,say_adv,Hanako said: Yash didn't say quietly that Tia brought her parents.,12,14887,10,say quietly,,
1207,condition1,0.87,1,filler_good,Hanako said: Ted didn't believe that Jacy rented the truck.,107,6914,11,believe,,
1207,condition1,0.03,1,filler_bad,Hanako said: Rui didn't speculate that Frank and Lisa were in the office.,116,12462,12,speculate,,
1207,condition1,0.59,2,filler_bad,Hanako said: Laura didn't suggest that Eva's uncle should stay for dinner.,121,22489,13,suggest,,
1207,condition1,0.55,2,say_adv,Hanako said: Frankie didn't say dryly that Kevin lost the keys.,2,18297,14,say dryly,,
1207,condition1,0.97,2,say,Hanako said: Ashley didn't say that Hasan talked to the detectives.,8,7503,15,say,,
1207,condition1,0.97,2,filler_good,Hanako said: Bill didn't suggest that Charlie received a message.,110,6440,16,suggest,,
1207,condition1,0.64,2,filler_bad,Hanako said: Sally didn't expect that the assistant to the director would give the presentation.,122,16040,17,expect,,
1207,condition1,0.98,2,filler_good,Hanako said: Helen didn't hope that Doug would invite the mayor.,102,6385,18,hope,,
1207,condition1,0.91,3,filler_good,Hanako said: Nancy didn't speculate that Maddie would call her roommate.,106,6598,19,speculate,,
1207,condition1,0.03,3,filler_bad,Hanako said: Jamal didn't guess that the book about astronomy was on the shelf.,124,26609,20,guess,,
1207,condition1,0.5,3,filler_bad,Hanako said: Larry didn't reveal that the agent of the guitarist would show up.,120,23662,21,reveal,,
1207,condition1,0.95,3,filler_good,Hanako said: Jake didn't think that Todd went out with Betty.,111,6024,22,think,,
1207,condition1,0.68,3,say_adv,Hanako said: Julian didn't say cheerfully that Dan knew the professor.,5,23321,23,say cheerfully,,
1207,condition1,0.91,3,say,Hanako said: John didn't say that Brandon broke his laptop.,4,8624,24,say,,
1207,condition1,0.91,4,filler_good,Hanako said: Grace didn't reveal that Tony would visit George.,112,7094,25,reveal,,
1207,condition1,0.6,4,say_adv,Hanako said: Igor didn't say loudly that Omar had dinner with his manager.,10,8145,26,say loudly,,
1207,condition1,0.97,4,filler_good,Hanako said: Emma didn't suspect that Karen wrote a book.,104,4487,27,suspect,,
1207,condition1,0.81,4,say,Hanako said: Charlie didn't say that Penny won the lottery.,11,6999,28,say,,
1207,condition1,0,4,filler_bad,Hanako said: Ollie didn't imply that Rob and Marc cut the bread. ,114,10488,29,imply,,
1207,condition1,0.51,4,filler_bad,Hanako said: Chandler didn't suspect that Krisha's parents were moving to Texas.,123,11359,30,suspect,,
1207,condition1,0.01,5,filler_bad,Hanako said: Howard didn't insist that Kevin and Paul drafted the letter.,113,19450,31,insist,,
1207,condition1,0.51,5,filler_bad,Hanako said: Tim didn't believe that Carol's brother signed the contract.,119,15151,32,believe,,
1207,condition1,0.7,5,say_adv,Hanako said: Jessie didn't say sternly that Alex bought a birthday cake.,3,8561,33,say sternly,,
1207,condition1,0.98,5,filler_good,Hanako said: Hannah didn't guess that Zack broke the plates.,109,6055,34,guess,,
1207,condition1,0.9,5,say,Hanako said: Donald didn't say that Ming forgot her phone. ,9,4600,35,say,,
1207,condition1,1,5,filler_good,Hanako said: Amy didn't insist that Jennifer got a cat.,105,7872,36,insist,,
1189,condition1,0.69,practice,practice_acceptability_good_1,Hanako said: Fiona didn't buy pineapple.,201,,0,NA,0,
1189,condition1,0,practice,practice_accpetability_bad_2,Hanako said: Prisha doesn't speak Korean.,204,,0,NA,0,
1189,condition1,0.54,0,say,Hanako said: Matthew didn't say that Dan knew the professor.,5,45426,1,say,,
1189,condition1,0.33,0,filler_bad,Hanako said: Jess didn't insist that Kevin and Paul drafted the letter.,113,23595,2,insist,,
1189,condition1,0.84,0,filler_good,Hanako said: Howard didn't think that Zack broke the plates.,109,14209,3,think,,
1189,condition1,0.2,0,say_adv,Hanako said: Rui didn't say dryly that Yumi found the wallet.,7,13276,4,say dryly,,
1189,condition1,0.11,0,filler_bad,Hanako said: Ben didn't expect that the book about astronomy was on the shelf.,124,28442,5,expect,,
1189,condition1,0.97,0,filler_good,Hanako said: Jake didn't expect that Charlie received a message.,110,11012,6,expect,,
1189,condition1,0.89,1,filler_good,Hanako said: Donald didn't guess that Doug would invite the mayor.,102,10891,7,guess,,
1189,condition1,0.23,1,say_adv,Hanako said: Larry didn't say calmly that Omar had dinner with his manager.,10,25214,8,say calmly,,
1189,condition1,0.03,1,filler_bad,Hanako said: Helen didn't suggest that the agent of the guitarist would show up.,120,17526,9,suggest,,
1189,condition1,0.99,1,say,Hanako said: Tim didn't say that Alex bought a birthday cake.,3,9338,10,say,,
1189,condition1,0.97,1,filler_good,Hanako said: Fatima didn't reveal that Dana brought a gift.,108,10073,11,reveal,,
1189,condition1,0,1,filler_bad,Hanako said: Bill didn't hope that Judith and Laura would order pizza.,118,12155,12,hope,,
1189,condition1,0.97,2,say,Hanako said: Frankie didn't say that Penny won the lottery.,11,6609,13,say,,
1189,condition1,0.05,2,filler_bad,Hanako said: Grace didn't think that Rob and Marc cut the bread. ,114,24677,14,think,,
1189,condition1,0.67,2,say_adv,Hanako said: Yash didn't say loudly that Brandon broke his laptop.,4,13586,15,say loudly,,
1189,condition1,1,2,filler_good,Hanako said: Charlie didn't imply that Jacy rented the truck.,107,12725,16,imply,,
1189,condition1,0.09,2,filler_bad,Hanako said: Julian didn't believe that Frank and Lisa were in the office.,116,8567,17,believe,,
1189,condition1,0.85,2,filler_good,Hanako said: Danny didn't expect that Karen wrote a book.,104,16318,18,expect,,
1189,condition1,0.88,3,say_adv,Hanako said: Jessie didn't say wistfully that Ming forgot her phone. ,9,11374,19,say wistfully,,
1189,condition1,0.99,3,filler_good,Hanako said: Jamal didn't believe that Tony would visit George.,112,7700,20,believe,,
1189,condition1,0.08,3,filler_bad,Hanako said: Ted didn't expect that Liz and Jason drank the beer. ,115,9494,21,expect,,
1189,condition1,1,3,filler_good,Hanako said: Hannah didn't suspect that Maddie would call her roommate.,106,7516,22,suspect,,
1189,condition1,0.97,3,say,Hanako said: Ashley didn't say that Hasan talked to the detectives.,8,8326,23,say,,
1189,condition1,0.02,3,filler_bad,Hanako said: Ollie didn't speculate that Carol's brother signed the contract.,119,9623,24,speculate,,
1189,condition1,0.34,4,filler_bad,Hanako said: Emily didn't imply that Eva's uncle should stay for dinner.,121,26073,25,imply,,
1189,condition1,0.9,4,say,Hanako said: Emma didn't say that Kevin lost the keys.,2,8008,26,say,,
1189,condition1,0.6,4,filler_bad,Hanako said: Laura didn't suspect that the assistant to the director would give the presentation.,122,16083,27,suspect,,
1189,condition1,1,4,filler_good,Hanako said: Tony didn't speculate that Todd went out with Betty.,111,7779,28,speculate,,
1189,condition1,0.88,4,say_adv,Hanako said: Ronald didn't say gently that Mary met with the lawyer.,1,9475,29,say gently,,
1189,condition1,0.98,4,filler_good,Hanako said: Amy didn't insist that George emailed the students.,101,6341,30,insist,,
1189,condition1,0.56,5,filler_bad,Hanako said: Nancy didn't reveal that Krisha's parents were moving to Texas.,123,22673,31,reveal,,
1189,condition1,0.99,5,filler_good,Hanako said: Sally didn't suggest that Julian ate the cupcake.,103,5399,32,suggest,,
1189,condition1,0.08,5,filler_bad,Hanako said: Kate didn't guess that Karl and Nick cooked dinner.,117,10064,33,guess,,
1189,condition1,0.97,5,filler_good,Hanako said: Igor didn't hope that Jennifer got a cat.,105,10072,34,hope,,
1189,condition1,1,5,say,Hanako said: Chandler didn't say that Tia brought her parents.,12,14902,35,say,,
1189,condition1,0.9,5,say_adv,Hanako said: John didn't say ruefully that Charlie saw the robber.,6,10896,36,say ruefully,,
1181,condition1,1,practice,practice_acceptability_good_1,Hanako said: Fiona didn't buy pineapple.,201,,0,NA,0,
1181,condition1,0,practice,practice_accpetability_bad_2,Hanako said: Prisha doesn't speak Korean.,204,,0,NA,1,
1181,condition1,0.28,0,filler_good,Hanako said: Chandler didn't suggest that Julian ate the cupcake.,103,9126,1,suggest,,
1181,condition1,0.31,0,say,Hanako said: Ronald didn't say that Omar had dinner with his manager.,10,6207,2,say,,
1181,condition1,0,0,say_adv,Hanako said: Rui didn't say calmly that Mary met with the lawyer.,1,4811,3,say calmly,,
1181,condition1,0,0,filler_good,Hanako said: Julian didn't insist that Doug would invite the mayor.,102,4056,4,insist,,
1181,condition1,0,0,filler_bad,Hanako said: Laura didn't insist that Frank and Lisa were in the office.,116,5323,5,insist,,
1181,condition1,0,0,filler_bad,Hanako said: Nancy didn't reveal that Liz and Jason drank the beer. ,115,2111,6,reveal,,
1181,condition1,0,1,filler_good,Hanako said: Igor didn't reveal that Todd went out with Betty.,111,2828,7,reveal,,
1181,condition1,0.74,1,say,Hanako said: Yash didn't say that Ming forgot her phone. ,9,4725,8,say,,
1181,condition1,0.75,1,filler_bad,Hanako said: Fatima didn't suspect that Kevin and Paul drafted the letter.,113,3387,9,suspect,,
1181,condition1,0.83,1,filler_good,Hanako said: Ollie didn't speculate that Jacy rented the truck.,107,3150,10,speculate,,
1181,condition1,0.32,1,say_adv,Hanako said: Tim didn't say ruefully that Tia brought her parents.,12,2075,11,say ruefully,,
1181,condition1,0,1,filler_bad,Hanako said: Howard didn't guess that Judith and Laura would order pizza.,118,3518,12,guess,,
1181,condition1,0,2,filler_bad,Hanako said: Jake didn't speculate that Rob and Marc cut the bread. ,114,5071,13,speculate,,
1181,condition1,0.7,2,say,Hanako said: Matthew didn't say that Charlie saw the robber.,6,7860,14,say,,
1181,condition1,0.22,2,say_adv,Hanako said: Donald didn't say quietly that Dan knew the professor.,5,4549,15,say quietly,,
1181,condition1,0.01,2,filler_good,Hanako said: Ted didn't suspect that Maddie would call her roommate.,106,7736,16,suspect,,
1181,condition1,0,2,filler_bad,Hanako said: Grace didn't expect that Karl and Nick cooked dinner.,117,4802,17,expect,,
1181,condition1,1,2,filler_good,Hanako said: Sally didn't guess that Jennifer got a cat.,105,3704,18,guess,,
1181,condition1,0,3,filler_bad,Hanako said: Emily didn't imply that Eva's uncle should stay for dinner.,121,5138,19,imply,,
1181,condition1,0.72,3,filler_good,Hanako said: Jessie didn't imply that George emailed the students.,101,3082,20,imply,,
1181,condition1,1,3,say,Hanako said: Jamal didn't say that Brandon broke his laptop.,4,4894,21,say,,
1181,condition1,0,3,filler_bad,Hanako said: Tony didn't hope that the agent of the guitarist would show up.,120,3926,22,hope,,
1181,condition1,0,3,say_adv,Hanako said: Ashley didn't say dryly that Kevin lost the keys.,2,3389,23,say dryly,,
1181,condition1,0.75,3,filler_good,Hanako said: John didn't expect that Tony would visit George.,112,3850,24,expect,,
1181,condition1,0.99,4,filler_good,Hanako said: Amy didn't expect that Dana brought a gift.,108,4726,25,expect,,
1181,condition1,0,4,filler_bad,Hanako said: Helen didn't think that Krisha's parents were moving to Texas.,123,7001,26,think,,
1181,condition1,0,4,filler_bad,Hanako said: Charlie didn't suggest that the book about astronomy was on the shelf.,124,2966,27,suggest,,
1181,condition1,0.77,4,say_adv,Hanako said: Kate didn't say loudly that Alex bought a birthday cake.,3,2559,28,say loudly,,
1181,condition1,0.24,4,filler_good,Hanako said: Jess didn't hope that Zack broke the plates.,109,2582,29,hope,,
1181,condition1,1,4,say,Hanako said: Hannah didn't say that Yumi found the wallet.,7,3365,30,say,,
1181,condition1,0,5,filler_bad,Hanako said: Ben didn't believe that Carol's brother signed the contract.,119,5886,31,believe,,
1181,condition1,0.96,5,say,Hanako said: Larry didn't say that Penny won the lottery.,11,3350,32,say,,
1181,condition1,0.84,5,filler_good,Hanako said: Danny didn't believe that Charlie received a message.,110,2520,33,believe,,
1181,condition1,1,5,filler_good,Hanako said: Emma didn't think that Karen wrote a book.,104,3212,34,think,,
1181,condition1,0,5,say_adv,Hanako said: Frankie didn't say bluntly that Hasan talked to the detectives.,8,3742,35,say bluntly,,
1181,condition1,0,5,filler_bad,Hanako said: Bill didn't expect that the assistant to the director would give the presentation.,122,3435,36,expect,,
1162,condition1,0.99,practice,practice_acceptability_good_1,Hanako said: Fiona didn't buy pineapple.,201,,0,NA,0,
1162,condition1,0,practice,practice_accpetability_bad_2,Hanako said: Prisha doesn't speak Korean.,204,,0,NA,0,
1162,condition1,0.9,0,say,Hanako said: Tim didn't say that Penny won the lottery.,11,9477,1,say,,
1162,condition1,0.01,0,filler_bad,Hanako said: Tony didn't insist that Carol's brother signed the contract.,119,9695,2,insist,,
1162,condition1,0.92,0,filler_good,Hanako said: Chandler didn't insist that Karen wrote a book.,104,8669,3,insist,,
1162,condition1,0.03,0,say_adv,Hanako said: John didn't say dryly that Charlie saw the robber.,6,9582,4,say dryly,,
1162,condition1,0.9,0,filler_good,Hanako said: Ronald didn't suspect that Doug would invite the mayor.,102,47987,5,suspect,,
1162,condition1,0,0,filler_bad,Hanako said: Helen didn't expect that the agent of the guitarist would show up.,120,10479,6,expect,,
1162,condition1,0.98,1,say,Hanako said: Howard didn't say that Dan knew the professor.,5,10546,7,say,,
1162,condition1,0.96,1,filler_good,Hanako said: Fatima didn't believe that Dana brought a gift.,108,6065,8,believe,,
1162,condition1,0.01,1,filler_bad,Hanako said: Kate didn't suggest that the assistant to the director would give the presentation.,122,9524,9,suggest,,
1162,condition1,0.96,1,filler_good,Hanako said: Igor didn't suggest that Todd went out with Betty.,111,10966,10,suggest,,
1162,condition1,0.03,1,filler_bad,Hanako said: Julian didn't reveal that Judith and Laura would order pizza.,118,6393,11,reveal,,
1162,condition1,0.54,1,say_adv,Hanako said: Jamal didn't say calmly that Yumi found the wallet.,7,8896,12,say calmly,,
1162,condition1,0.94,2,filler_good,Hanako said: Ben didn't speculate that Maddie would call her roommate.,106,6245,13,speculate,,
1162,condition1,0.95,2,say,Hanako said: Sally didn't say that Hasan talked to the detectives.,8,11571,14,say,,
1162,condition1,0.01,2,filler_bad,Hanako said: Frankie didn't believe that Kevin and Paul drafted the letter.,113,6953,15,believe,,
1162,condition1,0.06,2,filler_good,Hanako said: Amy didn't expect that Julian ate the cupcake.,103,7182,16,expect,,
1162,condition1,0.94,2,say_adv,Hanako said: Jessie didn't say loudly that Omar had dinner with his manager.,10,8794,17,say loudly,,
1162,condition1,0.02,2,filler_bad,Hanako said: Emma didn't guess that Karl and Nick cooked dinner.,117,10848,18,guess,,
1162,condition1,0.01,3,filler_bad,Hanako said: Ashley didn't expect that the book about astronomy was on the shelf.,124,11972,19,expect,,
1162,condition1,0.04,3,filler_bad,Hanako said: Charlie didn't speculate that Liz and Jason drank the beer. ,115,44541,20,speculate,,
1162,condition1,0.94,3,filler_good,Hanako said: Larry didn't reveal that Jacy rented the truck.,107,6170,21,reveal,,
1162,condition1,0.97,3,filler_good,Hanako said: Jake didn't guess that George emailed the students.,101,6072,22,guess,,
1162,condition1,0.91,3,say,Hanako said: Hannah didn't say that Alex bought a birthday cake.,3,9763,23,say,,
1162,condition1,0.05,3,say_adv,Hanako said: Rui didn't say cheerfully that Kevin lost the keys.,2,7061,24,say cheerfully,,
1162,condition1,0.05,4,filler_bad,Hanako said: Emily didn't imply that Krisha's parents were moving to Texas.,123,7138,25,imply,,
1162,condition1,0.93,4,filler_good,Hanako said: Ted didn't hope that Charlie received a message.,110,7092,26,hope,,
1162,condition1,0.94,4,say,Hanako said: Matthew didn't say that Brandon broke his laptop.,4,19023,27,say,,
1162,condition1,0.93,4,say_adv,Hanako said: Danny didn't say softly that Mary met with the lawyer.,1,7656,28,say softly,,
1162,condition1,0.97,4,filler_good,Hanako said: Ollie didn't imply that Jennifer got a cat.,105,5204,29,imply,,
1162,condition1,0.02,4,filler_bad,Hanako said: Bill didn't suspect that Rob and Marc cut the bread. ,114,7406,30,suspect,,
1162,condition1,0.14,5,say_adv,Hanako said: Donald didn't say wearily that Ming forgot her phone. ,9,6615,31,say wearily,,
1162,condition1,0.04,5,filler_bad,Hanako said: Laura didn't think that Frank and Lisa were in the office.,116,6387,32,think,,
1162,condition1,0.98,5,say,Hanako said: Jess didn't say that Tia brought her parents.,12,5790,33,say,,
1162,condition1,0.04,5,filler_bad,Hanako said: Yash didn't hope that Eva's uncle should stay for dinner.,121,7824,34,hope,,
1162,condition1,0.98,5,filler_good,Hanako said: Nancy didn't think that Tony would visit George.,112,5046,35,think,,
1162,condition1,0.23,5,filler_good,Hanako said: Grace didn't expect that Zack broke the plates.,109,5709,36,expect,,
1238,condition1,0.99,practice,practice_acceptability_good_1,Hanako said: Fiona didn't buy pineapple.,201,,0,NA,0,
1238,condition1,0.02,practice,practice_accpetability_bad_2,Hanako said: Prisha doesn't speak Korean.,204,,0,NA,0,
1238,condition1,0.21,0,filler_bad,Hanako said: Jake didn't imply that Frank and Lisa were in the office.,116,40232,1,imply,,
1238,condition1,0.22,0,filler_bad,Hanako said: Frankie didn't believe that Karl and Nick cooked dinner.,117,21824,2,believe,,
1238,condition1,0.99,0,say,Hanako said: Donald didn't say that Omar had dinner with his manager.,10,38225,3,say,,
1238,condition1,0.99,0,filler_good,Hanako said: Ollie didn't believe that Doug would invite the mayor.,102,65798,4,believe,,
1238,condition1,0.98,0,filler_good,Hanako said: Ben didn't hope that Tony would visit George.,112,38120,5,hope,,
1238,condition1,0.7,0,say_adv,Hanako said: Rui didn't say dryly that Hasan talked to the detectives.,8,93306,6,say dryly,,
1238,condition1,0.78,1,say,Hanako said: Danny didn't say that Tia brought her parents.,12,31920,7,say,,
1238,condition1,0.99,1,filler_good,Hanako said: Howard didn't reveal that Julian ate the cupcake.,103,36424,8,reveal,,
1238,condition1,0.02,1,filler_bad,Hanako said: Larry didn't expect that Rob and Marc cut the bread. ,114,64680,9,expect,,
1238,condition1,0.97,1,say_adv,Hanako said: Tim didn't say wearily that Alex bought a birthday cake.,3,36473,10,say wearily,,
1238,condition1,0.56,1,filler_bad,Hanako said: Tony didn't think that the assistant to the director would give the presentation.,122,29439,11,think,,
1238,condition1,0.97,1,filler_good,Hanako said: Igor didn't expect that Karen wrote a book.,104,36936,12,expect,,
1238,condition1,0.99,2,filler_good,Hanako said: Ted didn't imply that George emailed the students.,101,30344,13,imply,,
1238,condition1,0.98,2,say,Hanako said: Fatima didn't say that Mary met with the lawyer.,1,52400,14,say,,
1238,condition1,0.22,2,filler_bad,Hanako said: Laura didn't expect that Krisha's parents were moving to Texas.,123,21480,15,expect,,
1238,condition1,1,2,filler_good,Hanako said: Bill didn't guess that Maddie would call her roommate.,106,24416,16,guess,,
1238,condition1,0.14,2,filler_bad,Hanako said: Emily didn't insist that Eva's uncle should stay for dinner.,121,18192,17,insist,,
1238,condition1,0.74,2,say_adv,Hanako said: Jamal didn't say cheerfully that Charlie saw the robber.,6,25120,18,say cheerfully,,
1238,condition1,1,3,say_adv,Hanako said: Hannah didn't say ruefully that Penny won the lottery.,11,21952,19,say ruefully,,
1238,condition1,0.98,3,say,Hanako said: Helen didn't say that Ming forgot her phone. ,9,29128,20,say,,
1238,condition1,0.87,3,filler_good,Hanako said: Matthew didn't expect that Jacy rented the truck.,107,29576,21,expect,,
1238,condition1,0.12,3,filler_bad,Hanako said: Ashley didn't guess that Kevin and Paul drafted the letter.,113,17280,22,guess,,
1238,condition1,0.97,3,filler_good,Hanako said: Jess didn't suspect that Todd went out with Betty.,111,24224,23,suspect,,
1238,condition1,0.28,3,filler_bad,Hanako said: Charlie didn't speculate that Judith and Laura would order pizza.,118,29120,24,speculate,,
1238,condition1,0.98,4,say_adv,Hanako said: Sally didn't say calmly that Brandon broke his laptop.,4,27627,25,say calmly,,
1238,condition1,0.99,4,filler_good,Hanako said: Amy didn't speculate that Dana brought a gift.,108,12688,26,speculate,,
1238,condition1,0.2,4,filler_bad,Hanako said: Chandler didn't hope that the book about astronomy was on the shelf.,124,28368,27,hope,,
1238,condition1,0.99,4,say,Hanako said: Yash didn't say that Dan knew the professor.,5,66758,28,say,,
1238,condition1,0.99,4,filler_good,Hanako said: Grace didn't think that Jennifer got a cat.,105,8328,29,think,,
1238,condition1,0.29,4,filler_bad,Hanako said: Ronald didn't reveal that Carol's brother signed the contract.,119,16864,30,reveal,,
1238,condition1,1,5,say,Hanako said: Emma didn't say that Kevin lost the keys.,2,16520,31,say,,
1238,condition1,0.99,5,filler_good,Hanako said: Julian didn't suggest that Charlie received a message.,110,8864,32,suggest,,
1238,condition1,0.84,5,say_adv,Hanako said: John didn't say gently that Yumi found the wallet.,7,13440,33,say gently,,
1238,condition1,0.97,5,filler_good,Hanako said: Nancy didn't insist that Zack broke the plates.,109,8856,34,insist,,
1238,condition1,0.1,5,filler_bad,Hanako said: Jessie didn't suggest that Liz and Jason drank the beer. ,115,14201,35,suggest,,
1238,condition1,0.24,5,filler_bad,Hanako said: Kate didn't suspect that the agent of the guitarist would show up.,120,13167,36,suspect,,
1198,condition1,1,practice,practice_acceptability_good_1,Hanako said: Fiona didn't buy pineapple.,201,,0,NA,0,
1198,condition1,0,practice,practice_accpetability_bad_2,Hanako said: Prisha doesn't speak Korean.,204,,0,NA,1,
1198,condition1,0.01,0,filler_good,Hanako said: Kate didn't think that Karen wrote a book.,104,16503,1,think,,
1198,condition1,0.93,0,filler_bad,Hanako said: Frankie didn't speculate that Liz and Jason drank the beer. ,115,11436,2,speculate,,
1198,condition1,0.92,0,filler_bad,Hanako said: Danny didn't suggest that the agent of the guitarist would show up.,120,15676,3,suggest,,
1198,condition1,0.98,0,say,Hanako said: Matthew didn't say that Ming forgot her phone. ,9,14357,4,say,,
1198,condition1,0.97,0,filler_good,Hanako said: Emma didn't guess that Charlie received a message.,110,161906,5,guess,,
1198,condition1,0.96,0,say_adv,Hanako said: Helen didn't say ruefully that Mary met with the lawyer.,1,13440,6,say ruefully,,
1198,condition1,0.02,1,filler_bad,Hanako said: Yash didn't expect that Karl and Nick cooked dinner.,117,62975,7,expect,,
1198,condition1,0.99,1,say,Hanako said: Ronald didn't say that Charlie saw the robber.,6,9282,8,say,,
1198,condition1,0.99,1,filler_good,Hanako said: Donald didn't suspect that Jennifer got a cat.,105,9735,9,suspect,,
1198,condition1,0.96,1,filler_good,Hanako said: Jess didn't believe that Tony would visit George.,112,11700,10,believe,,
1198,condition1,0,1,say_adv,Hanako said: Ashley didn't say sternly that Kevin lost the keys.,2,14648,11,say sternly,,
1198,condition1,0.01,1,filler_bad,Hanako said: Rui didn't believe that Eva's uncle should stay for dinner.,121,10232,12,believe,,
1198,condition1,0,2,filler_bad,Hanako said: Nancy didn't suspect that Rob and Marc cut the bread. ,114,14820,13,suspect,,
1198,condition1,0,2,filler_bad,Hanako said: Hannah didn't think that Kevin and Paul drafted the letter.,113,12819,14,think,,
1198,condition1,1,2,say,Hanako said: Julian didn't say that Hasan talked to the detectives.,8,9662,15,say,,
1198,condition1,1,2,filler_good,Hanako said: Jamal didn't expect that Maddie would call her roommate.,106,16305,16,expect,,
1198,condition1,0.97,2,filler_good,Hanako said: Grace didn't reveal that Doug would invite the mayor.,102,443406,17,reveal,,
1198,condition1,0.95,2,say_adv,Hanako said: Amy didn't say wistfully that Tia brought her parents.,12,3404,18,say wistfully,,
1198,condition1,0.92,3,filler_good,Hanako said: Fatima didn't expect that Jacy rented the truck.,107,2408,19,expect,,
1198,condition1,0.95,3,say_adv,Hanako said: Igor didn't say cheerfully that Omar had dinner with his manager.,10,6144,20,say cheerfully,,
1198,condition1,0.97,3,say,Hanako said: Laura didn't say that Alex bought a birthday cake.,3,4653,21,say,,
1198,condition1,0.93,3,filler_good,Hanako said: Jessie didn't speculate that George emailed the students.,101,3921,22,speculate,,
