workerid,proliferate.condition,acceptability_rating,bg_response,block_id,condition,context,item_id,original_bg_choice,rt,task,trial_num,verb,wrong_attempts,catch_trials,subject_information.age,subject_information.asses,subject_information.comments,subject_information.education,subject_information.enjoyment,subject_information.gender,subject_information.language,system.Browser,system.OS,system.screenH,system.screenW,time_in_minutes,error
77,condition1,0.89,NA,practice,practice_acceptability_good_1,Hanako said: Fiona didn't buy <strong>PINEAPPLES</strong>.,201,,,acceptability,0,NA,0,[],35,Yes,,2,1,Male,English,Chrome,Windows,768,1366,30.199616666666667,
77,condition1,NA,correct,practice,practice_bg_good_2,Hanako said: Vera didn't <strong>DRIVE</strong> to Michigan.,202,How Vera travelled to Michigan.,,backgroundedness,0,NA,,[],35,Yes,,2,1,Male,English,Chrome,Windows,768,1366,30.199616666666667,
77,condition1,0.28,NA,practice,practice_accpetability_bad_2,Hanako said: Prisha doesn't speak <strong>KOREAN</strong>.,204,,,acceptability,0,NA,0,[],35,Yes,,2,1,Male,English,Chrome,Windows,768,1366,30.199616666666667,
77,condition1,NA,correct,practice,practice_bg_bad_1,Hanako said: Hank didn't buy the <strong>RED</strong> car.,203,Which car Hank bought.,,backgroundedness,0,NA,,[],35,Yes,,2,1,Male,English,Chrome,Windows,768,1366,30.199616666666667,
77,condition1,NA,correct,0,filler_good_2,Hanako said: <strong>JESS</strong> didn't reveal that Todd went out with Betty.,111,Who revealed that Todd went out with Betty.,62945,backgroundedness,1,reveal,,[],35,Yes,,2,1,Male,English,Chrome,Windows,768,1366,30.199616666666667,
77,condition1,0.28,NA,0,embed_focus,Hanako said: Yash didn't whine that Ming forgot her <strong>PHONE</strong>.,9,NA,50596,acceptability,2,whine,,[],35,Yes,,2,1,Male,English,Chrome,Windows,768,1366,30.199616666666667,
77,condition1,NA,correct,0,filler_bad_1,Hanako said: Ben didn't expect that <strong>LAURA</strong> would order pizza.,118,"Who would order pizza, according to Ben.",24557,backgroundedness,3,expect,,[],35,Yes,,2,1,Male,English,Chrome,Windows,768,1366,30.199616666666667,
77,condition1,0.89,NA,0,verb_focus,Hanako said: Laura didn't <strong>MUTTER</strong> that Brandon broke his laptop.,4,NA,53019,acceptability,4,mutter,,[],35,Yes,,2,1,Male,English,Chrome,Windows,768,1366,30.199616666666667,
77,condition1,NA,correct,0,filler_bad_2,Hanako said: Jamal didn't expect that the book about <strong>ASTRONOMY</strong> was on the shelf.,124,"Which book was on the shelf, according to Jamal.",10497,backgroundedness,5,expect,,[],35,Yes,,2,1,Male,English,Chrome,Windows,768,1366,30.199616666666667,
77,condition1,0.83,NA,0,filler_good_1,Hanako said: Nancy didn't suspect that Julian ate the <strong>LAST CUPCAKE</strong>.,103,NA,22414,acceptability,6,suspect,,[],35,Yes,,2,1,Male,English,Chrome,Windows,768,1366,30.199616666666667,
77,condition1,0.91,NA,1,embed_focus,Hanako said: John didn't whisper that Mary met with the <strong>LAWYER</strong>.,1,NA,26943,acceptability,7,whisper,,[],35,Yes,,2,1,Male,English,Chrome,Windows,768,1366,30.199616666666667,
77,condition1,NA,correct,1,filler_good_2,Hanako said: <strong>RONALD</strong> didn't imply that Jacy rented the truck.,107,Who implied that Jacy rented the truck.,43848,backgroundedness,8,imply,,[],35,Yes,,2,1,Male,English,Chrome,Windows,768,1366,30.199616666666667,
77,condition1,0.97,NA,1,verb_focus,Hanako said: Fatima didn't <strong>MURMUR</strong> that Omar had dinner with his manager.,10,NA,12095,acceptability,9,murmur,,[],35,Yes,,2,1,Male,English,Chrome,Windows,768,1366,30.199616666666667,
77,condition1,NA,correct,1,filler_bad_1,Hanako said: Tim didn't suspect that <strong>JASON</strong> drank the beer. ,115,"Who drank the beer, according to Tim.",15193,backgroundedness,10,suspect,,[],35,Yes,,2,1,Male,English,Chrome,Windows,768,1366,30.199616666666667,
77,condition1,0.93,NA,1,filler_good_1,Hanako said: Hannah didn't say that George emailed the <strong>STUDENTS</strong>.,101,NA,25519,acceptability,11,say,,[],35,Yes,,2,1,Male,English,Chrome,Windows,768,1366,30.199616666666667,
77,condition1,NA,correct,1,filler_bad_2,Hanako said: Frankie didn't hope that the agent of the <strong>GUITARIST</strong> would show up. ,120,"Whose agent would show up, according to Frankie.",186865,backgroundedness,12,hope,,[],35,Yes,,2,1,Male,English,Chrome,Windows,768,1366,30.199616666666667,
77,condition1,0.93,NA,2,verb_focus,Hanako said: Igor didn't <strong>SHRIEK</strong> that Penny won the lottery.,11,NA,43250,acceptability,13,shriek,,[],35,Yes,,2,1,Male,English,Chrome,Windows,768,1366,30.199616666666667,
77,condition1,NA,correct,2,filler_bad_1,Hanako said: Emily didn't say that <strong>PAUL</strong> drafted the letter.,113,"Who drafted the letter, according to Emily.",24039,backgroundedness,14,say,,[],35,Yes,,2,1,Male,English,Chrome,Windows,768,1366,30.199616666666667,
77,condition1,NA,correct,2,filler_bad_2,Hanako said: Rui didn't imply that <strong>CAROL</strong>'s brother signed the contract.,119,"Whose brother signed the contract, according to Rui.",16433,backgroundedness,15,imply,,[],35,Yes,,2,1,Male,English,Chrome,Windows,768,1366,30.199616666666667,
77,condition1,0.92,NA,2,embed_focus,Hanako said: Howard didn't mumble that Alex bought a <strong>BIRTHDAY CAKE</strong>.,3,NA,11748,acceptability,16,mumble,,[],35,Yes,,2,1,Male,English,Chrome,Windows,768,1366,30.199616666666667,
77,condition1,NA,correct,2,filler_good_2,Hanako said: <strong>KATE</strong> didn't insist that Zack broke the plates.,109,Who insisted that Zack broke the plates.,12636,backgroundedness,17,insist,,[],35,Yes,,2,1,Male,English,Chrome,Windows,768,1366,30.199616666666667,
77,condition1,0.9,NA,2,filler_good_1,Hanako said: Danny didn't believe that Jennifer got a <strong>CAT</strong>.,105,NA,12173,acceptability,18,believe,,[],35,Yes,,2,1,Male,English,Chrome,Windows,768,1366,30.199616666666667,
77,condition1,0.92,NA,3,verb_focus,Hanako said: Ashley didn't <strong>GROAN</strong> that Hasan talked to the detectives.,8,NA,29452,acceptability,19,groan,,[],35,Yes,,2,1,Male,English,Chrome,Windows,768,1366,30.199616666666667,
77,condition1,NA,correct,3,filler_bad_1,Hanako said: Larry didn't believe that <strong>NICK</strong> cooked dinner.,117,"Who cooked dinner, according to Larry.",20097,backgroundedness,20,believe,,[],35,Yes,,2,1,Male,English,Chrome,Windows,768,1366,30.199616666666667,
77,condition1,NA,correct,3,filler_good_2,Hanako said: <strong>MATTHEW</strong> didn't hope that Dana brought a gift.,108,Who hoped that Dana brought a gift.,9896,backgroundedness,21,hope,,[],35,Yes,,2,1,Male,English,Chrome,Windows,768,1366,30.199616666666667,
77,condition1,0.99,NA,3,filler_good_1,Hanako said: Grace didn't sugguest that Karen wrote a <strong>BOOK</strong>.,104,NA,16338,acceptability,22,suggest,,[],35,Yes,,2,1,Male,English,Chrome,Windows,768,1366,30.199616666666667,
77,condition1,NA,correct,3,filler_bad_2,Hanako said: Jessie didn't guess that the assistant to the <strong>DIRECTOR</strong> would give the presentation.,122,"Whose assistant would give the presentation, according to Jessie.",21679,backgroundedness,23,guess,,[],35,Yes,,2,1,Male,English,Chrome,Windows,768,1366,30.199616666666667,
77,condition1,1,NA,3,embed_focus,Hanako said: Amy didn't scream that Charlie saw the <strong>ROBBER</strong>.,6,NA,17163,acceptability,24,scream,,[],35,Yes,,2,1,Male,English,Chrome,Windows,768,1366,30.199616666666667,
77,condition1,1,NA,4,embed_focus,Hanako said: Jake didn't yell that Yumi found the <strong>WALLET</strong>.,7,NA,15676,acceptability,25,yell,,[],35,Yes,,2,1,Male,English,Chrome,Windows,768,1366,30.199616666666667,
77,condition1,1,NA,4,filler_good_1,Hanako said: Ollie didn't think that Doug would invite the <strong>MAYOR</strong>.,102,NA,10242,acceptability,26,think,,[],35,Yes,,2,1,Male,English,Chrome,Windows,768,1366,30.199616666666667,
77,condition1,NA,correct,4,filler_bad_1,Hanako said: Tony didn't suggest that <strong>LISA</strong> was in the office.,116,"Who was in the office, according to Tony.",8239,backgroundedness,27,suggest,,[],35,Yes,,2,1,Male,English,Chrome,Windows,768,1366,30.199616666666667,
77,condition1,0.98,NA,4,verb_focus,Hanako said: Chandler didn't <strong>MOAN</strong> that Tia brought her parents.,12,NA,6193,acceptability,28,moan,,[],35,Yes,,2,1,Male,English,Chrome,Windows,768,1366,30.199616666666667,
77,condition1,NA,correct,4,filler_bad_2,Hanako said: Ted didn't insist that <strong>EVA</strong>'s uncle should stay for dinner. ,121,"Whose uncle should stay for dinner, according to Ted.",15778,backgroundedness,29,insist,,[],35,Yes,,2,1,Male,English,Chrome,Windows,768,1366,30.199616666666667,
77,condition1,NA,correct,4,filler_good_2,Hanako said: <strong>SALLY</strong> didn't expect that Tony would visit George.,112,Who expected that Tony would visit George.,10238,backgroundedness,30,expect,,[],35,Yes,,2,1,Male,English,Chrome,Windows,768,1366,30.199616666666667,
77,condition1,1,NA,5,embed_focus,Hanako said: Emma didn't stammer that Kevin lost the <strong>KEYS</strong>.,2,NA,6021,acceptability,31,stammer,,[],35,Yes,,2,1,Male,English,Chrome,Windows,768,1366,30.199616666666667,
77,condition1,0.98,NA,5,filler_good_1,Hanako said: Charlie didn't expect that Maddie would call her <strong>ROOMMATE</strong>.,106,NA,5008,acceptability,32,expect,,[],35,Yes,,2,1,Male,English,Chrome,Windows,768,1366,30.199616666666667,
77,condition1,1,NA,5,verb_focus,Hanako said: Bill didn't <strong>SHOUT</strong> that Dan knew the professor.,5,NA,4247,acceptability,33,shout,,[],35,Yes,,2,1,Male,English,Chrome,Windows,768,1366,30.199616666666667,
77,condition1,NA,correct,5,filler_good_2,Hanako said: <strong>JULIAN</strong> didn't guess that Charlie received a message.,110,Who guessed that Charlie received a message.,8468,backgroundedness,34,guess,,[],35,Yes,,2,1,Male,English,Chrome,Windows,768,1366,30.199616666666667,
77,condition1,NA,correct,5,filler_bad_2,Hanako said: Donald didn't reveal that <strong>KRISHNA</strong>'s parents were moving to Texas.,123,"Whose parents were moving to Texas, according to Donald.",26002,backgroundedness,35,reveal,,[],35,Yes,,2,1,Male,English,Chrome,Windows,768,1366,30.199616666666667,
77,condition1,NA,correct,5,filler_bad_1,Hanako said: Helen didn't think that <strong>MARC</strong> cut the bread. ,114,"Who cut the bread, according to Helen.",572758,backgroundedness,36,think,,[],35,Yes,,2,1,Male,English,Chrome,Windows,768,1366,30.199616666666667,
81,condition1,0.98,NA,practice,practice_acceptability_good_1,Hanako said: Fiona didn't buy <strong>PINEAPPLES</strong>.,201,,,acceptability,0,NA,0,[],21,Yes,,2,1,Female,english,Chrome,Mac,900,1440,20.4262,
81,condition1,NA,correct,practice,practice_bg_good_2,Hanako said: Vera didn't <strong>DRIVE</strong> to Michigan.,202,How Vera travelled to Michigan.,,backgroundedness,0,NA,,[],21,Yes,,2,1,Female,english,Chrome,Mac,900,1440,20.4262,
81,condition1,0.03,NA,practice,practice_accpetability_bad_2,Hanako said: Prisha doesn't speak <strong>KOREAN</strong>.,204,,,acceptability,0,NA,0,[],21,Yes,,2,1,Female,english,Chrome,Mac,900,1440,20.4262,
81,condition1,NA,correct,practice,practice_bg_bad_1,Hanako said: Hank didn't buy the <strong>RED</strong> car.,203,Which car Hank bought.,,backgroundedness,0,NA,,[],21,Yes,,2,1,Female,english,Chrome,Mac,900,1440,20.4262,
81,condition1,0.27,NA,0,embed_focus,Hanako said: Ashley didn't groan that Hasan talked to the <strong>DETECTIVES</strong>.,8,NA,9050,acceptability,1,groan,,[],21,Yes,,2,1,Female,english,Chrome,Mac,900,1440,20.4262,
81,condition1,0.42,NA,0,verb_focus,Hanako said: Howard didn't <strong>MUMBLE</strong> that Alex bought a birthday cake.,3,NA,5855,acceptability,2,mumble,,[],21,Yes,,2,1,Female,english,Chrome,Mac,900,1440,20.4262,
81,condition1,NA,correct,0,filler_bad_1,Hanako said: Tony didn't suggest that <strong>LISA</strong> was in the office.,116,"Who was in the office, according to Tony.",7743,backgroundedness,3,suggest,,[],21,Yes,,2,1,Female,english,Chrome,Mac,900,1440,20.4262,
81,condition1,NA,correct,0,filler_bad_2,Hanako said: Ted didn't insist that <strong>EVA</strong>'s uncle should stay for dinner. ,121,"Whose uncle should stay for dinner, according to Ted.",35166,backgroundedness,4,insist,,[],21,Yes,,2,1,Female,english,Chrome,Mac,900,1440,20.4262,
81,condition1,0.89,NA,0,filler_good_1,Hanako said: Nancy didn't suspect that Julian ate the <strong>LAST CUPCAKE</strong>.,103,NA,100394,acceptability,5,suspect,,[],21,Yes,,2,1,Female,english,Chrome,Mac,900,1440,20.4262,
81,condition1,NA,correct,0,filler_good_2,Hanako said: <strong>SALLY</strong> didn't expect that Tony would visit George.,112,Who expected that Tony would visit George.,6222,backgroundedness,6,expect,,[],21,Yes,,2,1,Female,english,Chrome,Mac,900,1440,20.4262,
81,condition1,0.34,NA,1,embed_focus,Hanako said: Jake didn't yell that Yumi found the <strong>WALLET</strong>.,7,NA,5044,acceptability,7,yell,,[],21,Yes,,2,1,Female,english,Chrome,Mac,900,1440,20.4262,
81,condition1,NA,correct,1,filler_bad_2,Hanako said: Donald didn't reveal that <strong>KRISHNA</strong>'s parents were moving to Texas.,123,"Whose parents were moving to Texas, according to Donald.",9156,backgroundedness,8,reveal,,[],21,Yes,,2,1,Female,english,Chrome,Mac,900,1440,20.4262,
81,condition1,0.93,NA,1,filler_good_1,Hanako said: Grace didn't sugguest that Karen wrote a <strong>BOOK</strong>.,104,NA,3986,acceptability,9,suggest,,[],21,Yes,,2,1,Female,english,Chrome,Mac,900,1440,20.4262,
81,condition1,0.38,NA,1,verb_focus,Hanako said: Bill didn't <strong>SHOUT</strong> that Dan knew the professor.,5,NA,3224,acceptability,10,shout,,[],21,Yes,,2,1,Female,english,Chrome,Mac,900,1440,20.4262,
81,condition1,NA,correct,1,filler_bad_1,Hanako said: Emily didn't say that <strong>PAUL</strong> drafted the letter.,113,"Who drafted the letter, according to Emily.",73332,backgroundedness,11,say,,[],21,Yes,,2,1,Female,english,Chrome,Mac,900,1440,20.4262,
81,condition1,NA,correct,1,filler_good_2,Hanako said: <strong>KATE</strong> didn't insist that Zack broke the plates.,109,Who insisted that Zack broke the plates.,4198,backgroundedness,12,insist,,[],21,Yes,,2,1,Female,english,Chrome,Mac,900,1440,20.4262,
81,condition1,NA,correct,2,filler_bad_2,Hanako said: Frankie didn't hope that the agent of the <strong>GUITARIST</strong> would show up. ,120,"Whose agent would show up, according to Frankie.",8593,backgroundedness,13,hope,,[],21,Yes,,2,1,Female,english,Chrome,Mac,900,1440,20.4262,
81,condition1,0.78,NA,2,embed_focus,Hanako said: Emma didn't stammer that Kevin lost the <strong>KEYS</strong>.,2,NA,3904,acceptability,14,stammer,,[],21,Yes,,2,1,Female,english,Chrome,Mac,900,1440,20.4262,
81,condition1,0.81,NA,2,verb_focus,Hanako said: Igor didn't <strong>SHRIEK</strong> that Penny won the lottery.,11,NA,7228,acceptability,15,shriek,,[],21,Yes,,2,1,Female,english,Chrome,Mac,900,1440,20.4262,
81,condition1,NA,correct,2,filler_bad_1,Hanako said: Larry didn't believe that <strong>NICK</strong> cooked dinner.,117,"Who cooked dinner, according to Larry.",13925,backgroundedness,16,believe,,[],21,Yes,,2,1,Female,english,Chrome,Mac,900,1440,20.4262,
81,condition1,NA,correct,2,filler_good_2,Hanako said: <strong>MATTHEW</strong> didn't hope that Dana brought a gift.,108,Who hoped that Dana brought a gift.,26360,backgroundedness,17,hope,,[],21,Yes,,2,1,Female,english,Chrome,Mac,900,1440,20.4262,
81,condition1,0.85,NA,2,filler_good_1,Hanako said: Charlie didn't expect that Maddie would call her <strong>ROOMMATE</strong>.,106,NA,4532,acceptability,18,expect,,[],21,Yes,,2,1,Female,english,Chrome,Mac,900,1440,20.4262,
81,condition1,0.76,NA,3,filler_good_1,Hanako said: Danny didn't believe that Jennifer got a <strong>CAT</strong>.,105,NA,6592,acceptability,19,believe,,[],21,Yes,,2,1,Female,english,Chrome,Mac,900,1440,20.4262,
81,condition1,NA,correct,3,filler_good_2,Hanako said: <strong>JESS</strong> didn't reveal that Todd went out with Betty.,111,Who revealed that Todd went out with Betty.,20467,backgroundedness,20,reveal,,[],21,Yes,,2,1,Female,english,Chrome,Mac,900,1440,20.4262,
81,condition1,0.52,NA,3,verb_focus,Hanako said: John didn't <strong>WHISPER</strong> that Mary met with the lawyer.,1,NA,7358,acceptability,21,whisper,,[],21,Yes,,2,1,Female,english,Chrome,Mac,900,1440,20.4262,
81,condition1,NA,correct,3,filler_bad_1,Hanako said: Ben didn't expect that <strong>LAURA</strong> would order pizza.,118,"Who would order pizza, according to Ben.",6247,backgroundedness,22,expect,,[],21,Yes,,2,1,Female,english,Chrome,Mac,900,1440,20.4262,
81,condition1,NA,incorrect,3,filler_bad_2,Hanako said: Jamal didn't expect that the book about <strong>ASTRONOMY</strong> was on the shelf.,124,"Where the book about astronomy was, according to Jamal.",85908,backgroundedness,23,expect,,[],21,Yes,,2,1,Female,english,Chrome,Mac,900,1440,20.4262,
81,condition1,0.18,NA,3,embed_focus,Hanako said: Yash didn't whine that Ming forgot her <strong>PHONE</strong>.,9,NA,6803,acceptability,24,whine,,[],21,Yes,,2,1,Female,english,Chrome,Mac,900,1440,20.4262,
81,condition1,NA,correct,4,filler_bad_1,Hanako said: Helen didn't think that <strong>MARC</strong> cut the bread. ,114,"Who cut the bread, according to Helen.",5778,backgroundedness,25,think,,[],21,Yes,,2,1,Female,english,Chrome,Mac,900,1440,20.4262,
81,condition1,0.45,NA,4,embed_focus,Hanako said: Fatima didn't murmur that Omar had dinner with his <strong>MANAGER</strong>.,10,NA,5036,acceptability,26,murmur,,[],21,Yes,,2,1,Female,english,Chrome,Mac,900,1440,20.4262,
81,condition1,0.34,NA,4,verb_focus,Hanako said: Chandler didn't <strong>MOAN</strong> that Tia brought her parents.,12,NA,35320,acceptability,27,moan,,[],21,Yes,,2,1,Female,english,Chrome,Mac,900,1440,20.4262,
81,condition1,NA,correct,4,filler_bad_2,Hanako said: Rui didn't imply that <strong>CAROL</strong>'s brother signed the contract.,119,"Whose brother signed the contract, according to Rui.",88491,backgroundedness,28,imply,,[],21,Yes,,2,1,Female,english,Chrome,Mac,900,1440,20.4262,
81,condition1,0.59,NA,4,filler_good_1,Hanako said: Ollie didn't think that Doug would invite the <strong>MAYOR</strong>.,102,NA,10782,acceptability,29,think,,[],21,Yes,,2,1,Female,english,Chrome,Mac,900,1440,20.4262,
81,condition1,NA,correct,4,filler_good_2,Hanako said: <strong>RONALD</strong> didn't imply that Jacy rented the truck.,107,Who implied that Jacy rented the truck.,130982,backgroundedness,30,imply,,[],21,Yes,,2,1,Female,english,Chrome,Mac,900,1440,20.4262,
81,condition1,NA,correct,5,filler_bad_2,Hanako said: Jessie didn't guess that the assistant to the <strong>DIRECTOR</strong> would give the presentation.,122,"Whose assistant would give the presentation, according to Jessie.",154710,backgroundedness,31,guess,,[],21,Yes,,2,1,Female,english,Chrome,Mac,900,1440,20.4262,
81,condition1,0.65,NA,5,embed_focus,Hanako said: Amy didn't scream that Charlie saw the <strong>ROBBER</strong>.,6,NA,34361,acceptability,32,scream,,[],21,Yes,,2,1,Female,english,Chrome,Mac,900,1440,20.4262,
81,condition1,0.63,NA,5,filler_good_1,Hanako said: Hannah didn't say that George emailed the <strong>STUDENTS</strong>.,101,NA,3298,acceptability,33,say,,[],21,Yes,,2,1,Female,english,Chrome,Mac,900,1440,20.4262,
81,condition1,NA,correct,5,filler_good_2,Hanako said: <strong>JULIAN</strong> didn't guess that Charlie received a message.,110,Who guessed that Charlie received a message.,4958,backgroundedness,34,guess,,[],21,Yes,,2,1,Female,english,Chrome,Mac,900,1440,20.4262,
81,condition1,NA,correct,5,filler_bad_1,Hanako said: Tim didn't suspect that <strong>JASON</strong> drank the beer. ,115,"Who drank the beer, according to Tim.",3681,backgroundedness,35,suspect,,[],21,Yes,,2,1,Female,english,Chrome,Mac,900,1440,20.4262,
81,condition1,0.76,NA,5,verb_focus,Hanako said: Laura didn't <strong>MUTTER</strong> that Brandon broke his laptop.,4,NA,141992,acceptability,36,mutter,,[],21,Yes,,2,1,Female,english,Chrome,Mac,900,1440,20.4262,
83,condition1,0.97,NA,practice,practice_acceptability_good_1,Hanako said: Fiona didn't buy <strong>PINEAPPLES</strong>.,201,,,acceptability,0,NA,0,[],20,Yes,,2,1,Female,english,Chrome,Mac,800,1280,12.0985,
83,condition1,NA,correct,practice,practice_bg_good_2,Hanako said: Vera didn't <strong>DRIVE</strong> to Michigan.,202,How Vera travelled to Michigan.,,backgroundedness,0,NA,,[],20,Yes,,2,1,Female,english,Chrome,Mac,800,1280,12.0985,
83,condition1,0.5,NA,practice,practice_accpetability_bad_2,Hanako said: Prisha doesn't speak <strong>KOREAN</strong>.,204,,,acceptability,0,NA,0,[],20,Yes,,2,1,Female,english,Chrome,Mac,800,1280,12.0985,
83,condition1,NA,correct,practice,practice_bg_bad_1,Hanako said: Hank didn't buy the <strong>RED</strong> car.,203,Which car Hank bought.,,backgroundedness,0,NA,,[],20,Yes,,2,1,Female,english,Chrome,Mac,800,1280,12.0985,
83,condition1,0.21,NA,0,verb_focus,Hanako said: Howard didn't <strong>MUMBLE</strong> that Alex bought a birthday cake.,3,NA,53991,acceptability,1,mumble,,[],20,Yes,,2,1,Female,english,Chrome,Mac,800,1280,12.0985,
83,condition1,0,NA,0,embed_focus,Hanako said: Yash didn't whine that Ming forgot her <strong>PHONE</strong>.,9,NA,9348,acceptability,2,whine,,[],20,Yes,,2,1,Female,english,Chrome,Mac,800,1280,12.0985,
83,condition1,NA,correct,0,filler_good_2,Hanako said: <strong>KATE</strong> didn't insist that Zack broke the plates.,109,Who insisted that Zack broke the plates.,10697,backgroundedness,3,insist,,[],20,Yes,,2,1,Female,english,Chrome,Mac,800,1280,12.0985,
83,condition1,NA,correct,0,filler_bad_1,Hanako said: Ben didn't expect that <strong>LAURA</strong> would order pizza.,118,"Who would order pizza, according to Ben.",20228,backgroundedness,4,expect,,[],20,Yes,,2,1,Female,english,Chrome,Mac,800,1280,12.0985,
83,condition1,NA,correct,0,filler_bad_2,Hanako said: Ted didn't insist that <strong>EVA</strong>'s uncle should stay for dinner. ,121,"Whose uncle should stay for dinner, according to Ted.",32445,backgroundedness,5,insist,,[],20,Yes,,2,1,Female,english,Chrome,Mac,800,1280,12.0985,
83,condition1,0.97,NA,0,filler_good_1,Hanako said: Danny didn't believe that Jennifer got a <strong>CAT</strong>.,105,NA,6784,acceptability,6,believe,,[],20,Yes,,2,1,Female,english,Chrome,Mac,800,1280,12.0985,
83,condition1,0.98,NA,1,embed_focus,Hanako said: John didn't whisper that Mary met with the <strong>LAWYER</strong>.,1,NA,8695,acceptability,7,whisper,,[],20,Yes,,2,1,Female,english,Chrome,Mac,800,1280,12.0985,
83,condition1,0.2,NA,1,verb_focus,Hanako said: Jake didn't <strong>YELL</strong> that Yumi found the wallet.,7,NA,9570,acceptability,8,yell,,[],20,Yes,,2,1,Female,english,Chrome,Mac,800,1280,12.0985,
83,condition1,0.45,NA,1,filler_good_1,Hanako said: Nancy didn't suspect that Julian ate the <strong>LAST CUPCAKE</strong>.,103,NA,32758,acceptability,9,suspect,,[],20,Yes,,2,1,Female,english,Chrome,Mac,800,1280,12.0985,
83,condition1,NA,correct,1,filler_bad_1,Hanako said: Larry didn't believe that <strong>NICK</strong> cooked dinner.,117,"Who cooked dinner, according to Larry.",9651,backgroundedness,10,believe,,[],20,Yes,,2,1,Female,english,Chrome,Mac,800,1280,12.0985,
83,condition1,NA,correct,1,filler_good_2,Hanako said: <strong>SALLY</strong> didn't expect that Tony would visit George.,112,Who expected that Tony would visit George.,8616,backgroundedness,11,expect,,[],20,Yes,,2,1,Female,english,Chrome,Mac,800,1280,12.0985,
83,condition1,NA,correct,1,filler_bad_2,Hanako said: Jessie didn't guess that the assistant to the <strong>DIRECTOR</strong> would give the presentation.,122,"Whose assistant would give the presentation, according to Jessie.",14061,backgroundedness,12,guess,,[],20,Yes,,2,1,Female,english,Chrome,Mac,800,1280,12.0985,
83,condition1,0.02,NA,2,verb_focus,Hanako said: Laura didn't <strong>MUTTER</strong> that Brandon broke his laptop.,4,NA,9096,acceptability,13,mutter,,[],20,Yes,,2,1,Female,english,Chrome,Mac,800,1280,12.0985,
83,condition1,NA,correct,2,filler_good_2,Hanako said: <strong>RONALD</strong> didn't imply that Jacy rented the truck.,107,Who implied that Jacy rented the truck.,8408,backgroundedness,14,imply,,[],20,Yes,,2,1,Female,english,Chrome,Mac,800,1280,12.0985,
83,condition1,0.96,NA,2,filler_good_1,Hanako said: Grace didn't sugguest that Karen wrote a <strong>BOOK</strong>.,104,NA,10819,acceptability,15,suggest,,[],20,Yes,,2,1,Female,english,Chrome,Mac,800,1280,12.0985,
83,condition1,NA,correct,2,filler_bad_2,Hanako said: Frankie didn't hope that the agent of the <strong>GUITARIST</strong> would show up. ,120,"Whose agent would show up, according to Frankie.",23328,backgroundedness,16,hope,,[],20,Yes,,2,1,Female,english,Chrome,Mac,800,1280,12.0985,
83,condition1,0.79,NA,2,embed_focus,Hanako said: Igor didn't shriek that Penny won the <strong>LOTTERY</strong>.,11,NA,8102,acceptability,17,shriek,,[],20,Yes,,2,1,Female,english,Chrome,Mac,800,1280,12.0985,
83,condition1,NA,correct,2,filler_bad_1,Hanako said: Helen didn't think that <strong>MARC</strong> cut the bread. ,114,"Who cut the bread, according to Helen.",30704,backgroundedness,18,think,,[],20,Yes,,2,1,Female,english,Chrome,Mac,800,1280,12.0985,
83,condition1,NA,correct,3,filler_bad_2,Hanako said: Donald didn't reveal that <strong>KRISHNA</strong>'s parents were moving to Texas.,123,"Whose parents were moving to Texas, according to Donald.",33024,backgroundedness,19,reveal,,[],20,Yes,,2,1,Female,english,Chrome,Mac,800,1280,12.0985,
83,condition1,0.03,NA,3,verb_focus,Hanako said: Amy didn't <strong>SCREAM</strong> that Charlie saw the robber.,6,NA,21456,acceptability,20,scream,,[],20,Yes,,2,1,Female,english,Chrome,Mac,800,1280,12.0985,
83,condition1,0.04,NA,3,embed_focus,Hanako said: Chandler didn't moan that Tia brought her <strong>PARENTS</strong>.,12,NA,8288,acceptability,21,moan,,[],20,Yes,,2,1,Female,english,Chrome,Mac,800,1280,12.0985,
83,condition1,NA,correct,3,filler_good_2,Hanako said: <strong>JULIAN</strong> didn't guess that Charlie received a message.,110,Who guessed that Charlie received a message.,9602,backgroundedness,22,guess,,[],20,Yes,,2,1,Female,english,Chrome,Mac,800,1280,12.0985,
83,condition1,NA,correct,3,filler_bad_1,Hanako said: Tim didn't suspect that <strong>JASON</strong> drank the beer. ,115,"Who drank the beer, according to Tim.",13955,backgroundedness,23,suspect,,[],20,Yes,,2,1,Female,english,Chrome,Mac,800,1280,12.0985,
83,condition1,0.96,NA,3,filler_good_1,Hanako said: Charlie didn't expect that Maddie would call her <strong>ROOMMATE</strong>.,106,NA,6752,acceptability,24,expect,,[],20,Yes,,2,1,Female,english,Chrome,Mac,800,1280,12.0985,
83,condition1,0.97,NA,4,embed_focus,Hanako said: Emma didn't stammer that Kevin lost the <strong>KEYS</strong>.,2,NA,17151,acceptability,25,stammer,,[],20,Yes,,2,1,Female,english,Chrome,Mac,800,1280,12.0985,
83,condition1,NA,correct,4,filler_bad_1,Hanako said: Emily didn't say that <strong>PAUL</strong> drafted the letter.,113,"Who drafted the letter, according to Emily.",9456,backgroundedness,26,say,,[],20,Yes,,2,1,Female,english,Chrome,Mac,800,1280,12.0985,
83,condition1,0.15,NA,4,verb_focus,Hanako said: Bill didn't <strong>SHOUT</strong> that Dan knew the professor.,5,NA,9446,acceptability,27,shout,,[],20,Yes,,2,1,Female,english,Chrome,Mac,800,1280,12.0985,
83,condition1,NA,correct,4,filler_bad_2,Hanako said: Rui didn't imply that <strong>CAROL</strong>'s brother signed the contract.,119,"Whose brother signed the contract, according to Rui.",20747,backgroundedness,28,imply,,[],20,Yes,,2,1,Female,english,Chrome,Mac,800,1280,12.0985,
83,condition1,NA,correct,4,filler_good_2,Hanako said: <strong>JESS</strong> didn't reveal that Todd went out with Betty.,111,Who revealed that Todd went out with Betty.,13527,backgroundedness,29,reveal,,[],20,Yes,,2,1,Female,english,Chrome,Mac,800,1280,12.0985,
83,condition1,0.96,NA,4,filler_good_1,Hanako said: Hannah didn't say that George emailed the <strong>STUDENTS</strong>.,101,NA,25895,acceptability,30,say,,[],20,Yes,,2,1,Female,english,Chrome,Mac,800,1280,12.0985,
83,condition1,NA,correct,5,filler_bad_1,Hanako said: Tony didn't suggest that <strong>LISA</strong> was in the office.,116,"Who was in the office, according to Tony.",8717,backgroundedness,31,suggest,,[],20,Yes,,2,1,Female,english,Chrome,Mac,800,1280,12.0985,
83,condition1,NA,correct,5,filler_good_2,Hanako said: <strong>MATTHEW</strong> didn't hope that Dana brought a gift.,108,Who hoped that Dana brought a gift.,8091,backgroundedness,32,hope,,[],20,Yes,,2,1,Female,english,Chrome,Mac,800,1280,12.0985,
83,condition1,0.97,NA,5,embed_focus,Hanako said: Ashley didn't groan that Hasan talked to the <strong>DETECTIVES</strong>.,8,NA,7981,acceptability,33,groan,,[],20,Yes,,2,1,Female,english,Chrome,Mac,800,1280,12.0985,
83,condition1,0.98,NA,5,filler_good_1,Hanako said: Ollie didn't think that Doug would invite the <strong>MAYOR</strong>.,102,NA,18546,acceptability,34,think,,[],20,Yes,,2,1,Female,english,Chrome,Mac,800,1280,12.0985,
83,condition1,0.02,NA,5,verb_focus,Hanako said: Fatima didn't <strong>MURMUR</strong> that Omar had dinner with his manager.,10,NA,25259,acceptability,35,murmur,,[],20,Yes,,2,1,Female,english,Chrome,Mac,800,1280,12.0985,
83,condition1,NA,correct,5,filler_bad_2,Hanako said: Jamal didn't expect that the book about <strong>ASTRONOMY</strong> was on the shelf.,124,"Which book was on the shelf, according to Jamal.",37442,backgroundedness,36,expect,,[],20,Yes,,2,1,Female,english,Chrome,Mac,800,1280,12.0985,
80,condition1,0.71,NA,practice,practice_acceptability_good_1,Hanako said: Fiona didn't buy <strong>PINEAPPLES</strong>.,201,,,acceptability,0,NA,0,[],20,Yes,,2,1,Female,English and Spanish ,Chrome,Mac,900,1440,11.145633333333333,
80,condition1,NA,correct,practice,practice_bg_good_2,Hanako said: Vera didn't <strong>DRIVE</strong> to Michigan.,202,How Vera travelled to Michigan.,,backgroundedness,0,NA,,[],20,Yes,,2,1,Female,English and Spanish ,Chrome,Mac,900,1440,11.145633333333333,
80,condition1,0.17,NA,practice,practice_accpetability_bad_2,Hanako said: Prisha doesn't speak <strong>KOREAN</strong>.,204,,,acceptability,0,NA,1,[],20,Yes,,2,1,Female,English and Spanish ,Chrome,Mac,900,1440,11.145633333333333,
80,condition1,NA,correct,practice,practice_bg_bad_1,Hanako said: Hank didn't buy the <strong>RED</strong> car.,203,Which car Hank bought.,,backgroundedness,0,NA,,[],20,Yes,,2,1,Female,English and Spanish ,Chrome,Mac,900,1440,11.145633333333333,
80,condition1,0.77,NA,0,embed_focus,Hanako said: Laura didn't mutter that Brandon broke his <strong>LAPTOP</strong>.,4,NA,5657,acceptability,1,mutter,,[],20,Yes,,2,1,Female,English and Spanish ,Chrome,Mac,900,1440,11.145633333333333,
80,condition1,NA,correct,0,filler_good_2,Hanako said: <strong>SALLY</strong> didn't expect that Tony would visit George.,112,Who expected that Tony would visit George.,6863,backgroundedness,2,expect,,[],20,Yes,,2,1,Female,English and Spanish ,Chrome,Mac,900,1440,11.145633333333333,
80,condition1,0.79,NA,0,filler_good_1,Hanako said: Hannah didn't say that George emailed the <strong>STUDENTS</strong>.,101,NA,7385,acceptability,3,say,,[],20,Yes,,2,1,Female,English and Spanish ,Chrome,Mac,900,1440,11.145633333333333,
80,condition1,NA,correct,0,filler_bad_1,Hanako said: Tim didn't suspect that <strong>JASON</strong> drank the beer. ,115,"Who drank the beer, according to Tim.",11296,backgroundedness,4,suspect,,[],20,Yes,,2,1,Female,English and Spanish ,Chrome,Mac,900,1440,11.145633333333333,
80,condition1,0.25,NA,0,verb_focus,Hanako said: Bill didn't <strong>SHOUT</strong> that Dan knew the professor.,5,NA,5781,acceptability,5,shout,,[],20,Yes,,2,1,Female,English and Spanish ,Chrome,Mac,900,1440,11.145633333333333,
80,condition1,NA,correct,0,filler_bad_2,Hanako said: Jessie didn't guess that the assistant to the <strong>DIRECTOR</strong> would give the presentation.,122,"Whose assistant would give the presentation, according to Jessie.",10200,backgroundedness,6,guess,,[],20,Yes,,2,1,Female,English and Spanish ,Chrome,Mac,900,1440,11.145633333333333,
80,condition1,NA,correct,1,filler_bad_1,Hanako said: Larry didn't believe that <strong>NICK</strong> cooked dinner.,117,"Who cooked dinner, according to Larry.",57005,backgroundedness,7,believe,,[],20,Yes,,2,1,Female,English and Spanish ,Chrome,Mac,900,1440,11.145633333333333,
80,condition1,NA,correct,1,filler_good_2,Hanako said: <strong>JESS</strong> didn't reveal that Todd went out with Betty.,111,Who revealed that Todd went out with Betty.,10860,backgroundedness,8,reveal,,[],20,Yes,,2,1,Female,English and Spanish ,Chrome,Mac,900,1440,11.145633333333333,
80,condition1,0.56,NA,1,verb_focus,Hanako said: Jake didn't <strong>YELL</strong> that Yumi found the wallet.,7,NA,9014,acceptability,9,yell,,[],20,Yes,,2,1,Female,English and Spanish ,Chrome,Mac,900,1440,11.145633333333333,
80,condition1,0.59,NA,1,filler_good_1,Hanako said: Grace didn't sugguest that Karen wrote a <strong>BOOK</strong>.,104,NA,3625,acceptability,10,suggest,,[],20,Yes,,2,1,Female,English and Spanish ,Chrome,Mac,900,1440,11.145633333333333,
80,condition1,0.66,NA,1,embed_focus,Hanako said: Fatima didn't murmur that Omar had dinner with his <strong>MANAGER</strong>.,10,NA,5852,acceptability,11,murmur,,[],20,Yes,,2,1,Female,English and Spanish ,Chrome,Mac,900,1440,11.145633333333333,
80,condition1,NA,correct,1,filler_bad_2,Hanako said: Rui didn't imply that <strong>CAROL</strong>'s brother signed the contract.,119,"Whose brother signed the contract, according to Rui.",8807,backgroundedness,12,imply,,[],20,Yes,,2,1,Female,English and Spanish ,Chrome,Mac,900,1440,11.145633333333333,
80,condition1,NA,correct,2,filler_good_2,Hanako said: <strong>JULIAN</strong> didn't guess that Charlie received a message.,110,Who guessed that Charlie received a message.,10040,backgroundedness,13,guess,,[],20,Yes,,2,1,Female,English and Spanish ,Chrome,Mac,900,1440,11.145633333333333,
80,condition1,0.57,NA,2,verb_focus,Hanako said: Howard didn't <strong>MUMBLE</strong> that Alex bought a birthday cake.,3,NA,13260,acceptability,14,mumble,,[],20,Yes,,2,1,Female,English and Spanish ,Chrome,Mac,900,1440,11.145633333333333,
80,condition1,NA,correct,2,filler_bad_2,Hanako said: Frankie didn't hope that the agent of the <strong>GUITARIST</strong> would show up. ,120,"Whose agent would show up, according to Frankie.",7254,backgroundedness,15,hope,,[],20,Yes,,2,1,Female,English and Spanish ,Chrome,Mac,900,1440,11.145633333333333,
80,condition1,NA,correct,2,filler_bad_1,Hanako said: Emily didn't say that <strong>PAUL</strong> drafted the letter.,113,"Who drafted the letter, according to Emily.",8884,backgroundedness,16,say,,[],20,Yes,,2,1,Female,English and Spanish ,Chrome,Mac,900,1440,11.145633333333333,
80,condition1,0.61,NA,2,filler_good_1,Hanako said: Nancy didn't suspect that Julian ate the <strong>LAST CUPCAKE</strong>.,103,NA,7475,acceptability,17,suspect,,[],20,Yes,,2,1,Female,English and Spanish ,Chrome,Mac,900,1440,11.145633333333333,
80,condition1,0.58,NA,2,embed_focus,Hanako said: Igor didn't shriek that Penny won the <strong>LOTTERY</strong>.,11,NA,6392,acceptability,18,shriek,,[],20,Yes,,2,1,Female,English and Spanish ,Chrome,Mac,900,1440,11.145633333333333,
80,condition1,0.74,NA,3,embed_focus,Hanako said: Yash didn't whine that Ming forgot her <strong>PHONE</strong>.,9,NA,3858,acceptability,19,whine,,[],20,Yes,,2,1,Female,English and Spanish ,Chrome,Mac,900,1440,11.145633333333333,
80,condition1,NA,correct,3,filler_bad_2,Hanako said: Ted didn't insist that <strong>EVA</strong>'s uncle should stay for dinner. ,121,"Whose uncle should stay for dinner, according to Ted.",5511,backgroundedness,20,insist,,[],20,Yes,,2,1,Female,English and Spanish ,Chrome,Mac,900,1440,11.145633333333333,
80,condition1,0.77,NA,3,filler_good_1,Hanako said: Ollie didn't think that Doug would invite the <strong>MAYOR</strong>.,102,NA,51233,acceptability,21,think,,[],20,Yes,,2,1,Female,English and Spanish ,Chrome,Mac,900,1440,11.145633333333333,
80,condition1,NA,correct,3,filler_good_2,Hanako said: <strong>MATTHEW</strong> didn't hope that Dana brought a gift.,108,Who hoped that Dana brought a gift.,4507,backgroundedness,22,hope,,[],20,Yes,,2,1,Female,English and Spanish ,Chrome,Mac,900,1440,11.145633333333333,
80,condition1,NA,correct,3,filler_bad_1,Hanako said: Helen didn't think that <strong>MARC</strong> cut the bread. ,114,"Who cut the bread, according to Helen.",4851,backgroundedness,23,think,,[],20,Yes,,2,1,Female,English and Spanish ,Chrome,Mac,900,1440,11.145633333333333,
80,condition1,0.59,NA,3,verb_focus,Hanako said: Emma didn't <strong>STAMMER</strong> that Kevin lost the keys.,2,NA,3599,acceptability,24,stammer,,[],20,Yes,,2,1,Female,English and Spanish ,Chrome,Mac,900,1440,11.145633333333333,
80,condition1,NA,correct,4,filler_bad_2,Hanako said: Jamal didn't expect that the book about <strong>ASTRONOMY</strong> was on the shelf.,124,"Which book was on the shelf, according to Jamal.",7321,backgroundedness,25,expect,,[],20,Yes,,2,1,Female,English and Spanish ,Chrome,Mac,900,1440,11.145633333333333,
80,condition1,NA,correct,4,filler_good_2,Hanako said: <strong>KATE</strong> didn't insist that Zack broke the plates.,109,Who insisted that Zack broke the plates.,4393,backgroundedness,26,insist,,[],20,Yes,,2,1,Female,English and Spanish ,Chrome,Mac,900,1440,11.145633333333333,
80,condition1,NA,correct,4,filler_bad_1,Hanako said: Tony didn't suggest that <strong>LISA</strong> was in the office.,116,"Who was in the office, according to Tony.",5077,backgroundedness,27,suggest,,[],20,Yes,,2,1,Female,English and Spanish ,Chrome,Mac,900,1440,11.145633333333333,
80,condition1,0.63,NA,4,embed_focus,Hanako said: Chandler didn't moan that Tia brought her <strong>PARENTS</strong>.,12,NA,3931,acceptability,28,moan,,[],20,Yes,,2,1,Female,English and Spanish ,Chrome,Mac,900,1440,11.145633333333333,
80,condition1,0.59,NA,4,filler_good_1,Hanako said: Danny didn't believe that Jennifer got a <strong>CAT</strong>.,105,NA,3265,acceptability,29,believe,,[],20,Yes,,2,1,Female,English and Spanish ,Chrome,Mac,900,1440,11.145633333333333,
80,condition1,0.65,NA,4,verb_focus,Hanako said: Amy didn't <strong>SCREAM</strong> that Charlie saw the robber.,6,NA,4880,acceptability,30,scream,,[],20,Yes,,2,1,Female,English and Spanish ,Chrome,Mac,900,1440,11.145633333333333,
80,condition1,NA,correct,5,filler_bad_1,Hanako said: Ben didn't expect that <strong>LAURA</strong> would order pizza.,118,"Who would order pizza, according to Ben.",8047,backgroundedness,31,expect,,[],20,Yes,,2,1,Female,English and Spanish ,Chrome,Mac,900,1440,11.145633333333333,
80,condition1,0.64,NA,5,filler_good_1,Hanako said: Charlie didn't expect that Maddie would call her <strong>ROOMMATE</strong>.,106,NA,5483,acceptability,32,expect,,[],20,Yes,,2,1,Female,English and Spanish ,Chrome,Mac,900,1440,11.145633333333333,
80,condition1,0.61,NA,5,verb_focus,Hanako said: John didn't <strong>WHISPER</strong> that Mary met with the lawyer.,1,NA,3402,acceptability,33,whisper,,[],20,Yes,,2,1,Female,English and Spanish ,Chrome,Mac,900,1440,11.145633333333333,
80,condition1,NA,correct,5,filler_bad_2,Hanako said: Donald didn't reveal that <strong>KRISHNA</strong>'s parents were moving to Texas.,123,"Whose parents were moving to Texas, according to Donald.",5129,backgroundedness,34,reveal,,[],20,Yes,,2,1,Female,English and Spanish ,Chrome,Mac,900,1440,11.145633333333333,
80,condition1,NA,correct,5,filler_good_2,Hanako said: <strong>RONALD</strong> didn't imply that Jacy rented the truck.,107,Who implied that Jacy rented the truck.,8344,backgroundedness,35,imply,,[],20,Yes,,2,1,Female,English and Spanish ,Chrome,Mac,900,1440,11.145633333333333,
80,condition1,0.64,NA,5,embed_focus,Hanako said: Ashley didn't groan that Hasan talked to the <strong>DETECTIVES</strong>.,8,NA,7220,acceptability,36,groan,,[],20,Yes,,2,1,Female,English and Spanish ,Chrome,Mac,900,1440,11.145633333333333,
79,condition1,1,NA,practice,practice_acceptability_good_1,Hanako said: Fiona didn't buy <strong>PINEAPPLES</strong>.,201,,,acceptability,0,NA,0,[],21,Yes,"Although I am a native english speaker, I thought this was quite challenging. ",2,1,Female,English,Chrome,Mac,900,1440,6.61215,
79,condition1,NA,correct,practice,practice_bg_good_2,Hanako said: Vera didn't <strong>DRIVE</strong> to Michigan.,202,How Vera travelled to Michigan.,,backgroundedness,0,NA,,[],21,Yes,"Although I am a native english speaker, I thought this was quite challenging. ",2,1,Female,English,Chrome,Mac,900,1440,6.61215,
79,condition1,0,NA,practice,practice_accpetability_bad_2,Hanako said: Prisha doesn't speak <strong>KOREAN</strong>.,204,,,acceptability,0,NA,0,[],21,Yes,"Although I am a native english speaker, I thought this was quite challenging. ",2,1,Female,English,Chrome,Mac,900,1440,6.61215,
79,condition1,NA,correct,practice,practice_bg_bad_1,Hanako said: Hank didn't buy the <strong>RED</strong> car.,203,Which car Hank bought.,,backgroundedness,0,NA,,[],21,Yes,"Although I am a native english speaker, I thought this was quite challenging. ",2,1,Female,English,Chrome,Mac,900,1440,6.61215,
79,condition1,NA,incorrect,0,filler_bad_2,Hanako said: Rui didn't imply that <strong>CAROL</strong>'s brother signed the contract.,119,"What Carol's brother signed, according to Rui.",34134,backgroundedness,1,imply,,[],21,Yes,"Although I am a native english speaker, I thought this was quite challenging. ",2,1,Female,English,Chrome,Mac,900,1440,6.61215,
79,condition1,0.57,NA,0,embed_focus,Hanako said: Laura didn't mutter that Brandon broke his <strong>LAPTOP</strong>.,4,NA,15365,acceptability,2,mutter,,[],21,Yes,"Although I am a native english speaker, I thought this was quite challenging. ",2,1,Female,English,Chrome,Mac,900,1440,6.61215,
79,condition1,NA,incorrect,0,filler_good_2,Hanako said: <strong>RONALD</strong> didn't imply that Jacy rented the truck.,107,"What Jacy rented, according to Ronald.",10166,backgroundedness,3,imply,,[],21,Yes,"Although I am a native english speaker, I thought this was quite challenging. ",2,1,Female,English,Chrome,Mac,900,1440,6.61215,
79,condition1,0,NA,0,verb_focus,Hanako said: Ashley didn't <strong>GROAN</strong> that Hasan talked to the detectives.,8,NA,6467,acceptability,4,groan,,[],21,Yes,"Although I am a native english speaker, I thought this was quite challenging. ",2,1,Female,English,Chrome,Mac,900,1440,6.61215,
79,condition1,NA,correct,0,filler_bad_1,Hanako said: Emily didn't say that <strong>PAUL</strong> drafted the letter.,113,"Who drafted the letter, according to Emily.",11732,backgroundedness,5,say,,[],21,Yes,"Although I am a native english speaker, I thought this was quite challenging. ",2,1,Female,English,Chrome,Mac,900,1440,6.61215,
79,condition1,1,NA,0,filler_good_1,Hanako said: Charlie didn't expect that Maddie would call her <strong>ROOMMATE</strong>.,106,NA,6916,acceptability,6,expect,,[],21,Yes,"Although I am a native english speaker, I thought this was quite challenging. ",2,1,Female,English,Chrome,Mac,900,1440,6.61215,
79,condition1,0.75,NA,1,embed_focus,Hanako said: Emma didn't stammer that Kevin lost the <strong>KEYS</strong>.,2,NA,6967,acceptability,7,stammer,,[],21,Yes,"Although I am a native english speaker, I thought this was quite challenging. ",2,1,Female,English,Chrome,Mac,900,1440,6.61215,
79,condition1,NA,incorrect,1,filler_bad_2,Hanako said: Jamal didn't expect that the book about <strong>ASTRONOMY</strong> was on the shelf.,124,"Where the book about astronomy was, according to Jamal.",15983,backgroundedness,8,expect,,[],21,Yes,"Although I am a native english speaker, I thought this was quite challenging. ",2,1,Female,English,Chrome,Mac,900,1440,6.61215,
79,condition1,NA,incorrect,1,filler_good_2,Hanako said: <strong>KATE</strong> didn't insist that Zack broke the plates.,109,"What Zack broke, according to Kate.",9269,backgroundedness,9,insist,,[],21,Yes,"Although I am a native english speaker, I thought this was quite challenging. ",2,1,Female,English,Chrome,Mac,900,1440,6.61215,
79,condition1,0.96,NA,1,filler_good_1,Hanako said: Hannah didn't say that George emailed the <strong>STUDENTS</strong>.,101,NA,3831,acceptability,10,say,,[],21,Yes,"Although I am a native english speaker, I thought this was quite challenging. ",2,1,Female,English,Chrome,Mac,900,1440,6.61215,
79,condition1,0.68,NA,1,verb_focus,Hanako said: Bill didn't <strong>SHOUT</strong> that Dan knew the professor.,5,NA,4349,acceptability,11,shout,,[],21,Yes,"Although I am a native english speaker, I thought this was quite challenging. ",2,1,Female,English,Chrome,Mac,900,1440,6.61215,
79,condition1,NA,correct,1,filler_bad_1,Hanako said: Helen didn't think that <strong>MARC</strong> cut the bread. ,114,"Who cut the bread, according to Helen.",5936,backgroundedness,12,think,,[],21,Yes,"Although I am a native english speaker, I thought this was quite challenging. ",2,1,Female,English,Chrome,Mac,900,1440,6.61215,
79,condition1,1,NA,2,verb_focus,Hanako said: Yash didn't <strong>WHINE</strong> that Ming forgot her phone.,9,NA,7848,acceptability,13,whine,,[],21,Yes,"Although I am a native english speaker, I thought this was quite challenging. ",2,1,Female,English,Chrome,Mac,900,1440,6.61215,
79,condition1,0.77,NA,2,embed_focus,Hanako said: Fatima didn't murmur that Omar had dinner with his <strong>MANAGER</strong>.,10,NA,5084,acceptability,14,murmur,,[],21,Yes,"Although I am a native english speaker, I thought this was quite challenging. ",2,1,Female,English,Chrome,Mac,900,1440,6.61215,
79,condition1,NA,incorrect,2,filler_bad_2,Hanako said: Ted didn't insist that <strong>EVA</strong>'s uncle should stay for dinner. ,121,"What Eva's uncle should do, according to Ted.",8967,backgroundedness,15,insist,,[],21,Yes,"Although I am a native english speaker, I thought this was quite challenging. ",2,1,Female,English,Chrome,Mac,900,1440,6.61215,
79,condition1,NA,incorrect,2,filler_bad_1,Hanako said: Ben didn't expect that <strong>LAURA</strong> would order pizza.,118,Who expected that Laura would order pizza.,4936,backgroundedness,16,expect,,[],21,Yes,"Although I am a native english speaker, I thought this was quite challenging. ",2,1,Female,English,Chrome,Mac,900,1440,6.61215,
79,condition1,NA,incorrect,2,filler_good_2,Hanako said: <strong>JESS</strong> didn't reveal that Todd went out with Betty.,111,"Who Todd went out with, according to Jess.",4197,backgroundedness,17,reveal,,[],21,Yes,"Although I am a native english speaker, I thought this was quite challenging. ",2,1,Female,English,Chrome,Mac,900,1440,6.61215,
79,condition1,0.37,NA,2,filler_good_1,Hanako said: Grace didn't sugguest that Karen wrote a <strong>BOOK</strong>.,104,NA,4234,acceptability,18,suggest,,[],21,Yes,"Although I am a native english speaker, I thought this was quite challenging. ",2,1,Female,English,Chrome,Mac,900,1440,6.61215,
79,condition1,0.85,NA,3,filler_good_1,Hanako said: Ollie didn't think that Doug would invite the <strong>MAYOR</strong>.,102,NA,4048,acceptability,19,think,,[],21,Yes,"Although I am a native english speaker, I thought this was quite challenging. ",2,1,Female,English,Chrome,Mac,900,1440,6.61215,
79,condition1,0.49,NA,3,verb_focus,Hanako said: Howard didn't <strong>MUMBLE</strong> that Alex bought a birthday cake.,3,NA,3934,acceptability,20,mumble,,[],21,Yes,"Although I am a native english speaker, I thought this was quite challenging. ",2,1,Female,English,Chrome,Mac,900,1440,6.61215,
79,condition1,NA,incorrect,3,filler_bad_2,Hanako said: Jessie didn't guess that the assistant to the <strong>DIRECTOR</strong> would give the presentation.,122,"What the assistant to the director would do, according to Jessie.",11234,backgroundedness,21,guess,,[],21,Yes,"Although I am a native english speaker, I thought this was quite challenging. ",2,1,Female,English,Chrome,Mac,900,1440,6.61215,
79,condition1,NA,correct,3,filler_bad_1,Hanako said: Tim didn't suspect that <strong>JASON</strong> drank the beer. ,115,"Who drank the beer, according to Tim.",6746,backgroundedness,22,suspect,,[],21,Yes,"Although I am a native english speaker, I thought this was quite challenging. ",2,1,Female,English,Chrome,Mac,900,1440,6.61215,
79,condition1,NA,correct,3,filler_good_2,Hanako said: <strong>MATTHEW</strong> didn't hope that Dana brought a gift.,108,Who hoped that Dana brought a gift.,10786,backgroundedness,23,hope,,[],21,Yes,"Although I am a native english speaker, I thought this was quite challenging. ",2,1,Female,English,Chrome,Mac,900,1440,6.61215,
79,condition1,0.1,NA,3,embed_focus,Hanako said: Amy didn't scream that Charlie saw the <strong>ROBBER</strong>.,6,NA,3650,acceptability,24,scream,,[],21,Yes,"Although I am a native english speaker, I thought this was quite challenging. ",2,1,Female,English,Chrome,Mac,900,1440,6.61215,
79,condition1,0.07,NA,4,verb_focus,Hanako said: John didn't <strong>WHISPER</strong> that Mary met with the lawyer.,1,NA,2916,acceptability,25,whisper,,[],21,Yes,"Although I am a native english speaker, I thought this was quite challenging. ",2,1,Female,English,Chrome,Mac,900,1440,6.61215,
79,condition1,0.52,NA,4,embed_focus,Hanako said: Jake didn't yell that Yumi found the <strong>WALLET</strong>.,7,NA,6516,acceptability,26,yell,,[],21,Yes,"Although I am a native english speaker, I thought this was quite challenging. ",2,1,Female,English,Chrome,Mac,900,1440,6.61215,
79,condition1,NA,correct,4,filler_bad_2,Hanako said: Frankie didn't hope that the agent of the <strong>GUITARIST</strong> would show up. ,120,"Whose agent would show up, according to Frankie.",18920,backgroundedness,27,hope,,[],21,Yes,"Although I am a native english speaker, I thought this was quite challenging. ",2,1,Female,English,Chrome,Mac,900,1440,6.61215,
79,condition1,NA,correct,4,filler_bad_1,Hanako said: Larry didn't believe that <strong>NICK</strong> cooked dinner.,117,"Who cooked dinner, according to Larry.",7580,backgroundedness,28,believe,,[],21,Yes,"Although I am a native english speaker, I thought this was quite challenging. ",2,1,Female,English,Chrome,Mac,900,1440,6.61215,
79,condition1,0.82,NA,4,filler_good_1,Hanako said: Danny didn't believe that Jennifer got a <strong>CAT</strong>.,105,NA,3450,acceptability,29,believe,,[],21,Yes,"Although I am a native english speaker, I thought this was quite challenging. ",2,1,Female,English,Chrome,Mac,900,1440,6.61215,
79,condition1,NA,incorrect,4,filler_good_2,Hanako said: <strong>SALLY</strong> didn't expect that Tony would visit George.,112,"Who Tony would visit, according to Sally.",7171,backgroundedness,30,expect,,[],21,Yes,"Although I am a native english speaker, I thought this was quite challenging. ",2,1,Female,English,Chrome,Mac,900,1440,6.61215,
79,condition1,0.14,NA,5,embed_focus,Hanako said: Chandler didn't moan that Tia brought her <strong>PARENTS</strong>.,12,NA,5162,acceptability,31,moan,,[],21,Yes,"Although I am a native english speaker, I thought this was quite challenging. ",2,1,Female,English,Chrome,Mac,900,1440,6.61215,
79,condition1,NA,incorrect,5,filler_bad_2,Hanako said: Donald didn't reveal that <strong>KRISHNA</strong>'s parents were moving to Texas.,123,"Where Krishna's parents were moving to, according to Donald.",7432,backgroundedness,32,reveal,,[],21,Yes,"Although I am a native english speaker, I thought this was quite challenging. ",2,1,Female,English,Chrome,Mac,900,1440,6.61215,
79,condition1,NA,correct,5,filler_bad_1,Hanako said: Tony didn't suggest that <strong>LISA</strong> was in the office.,116,"Who was in the office, according to Tony.",6534,backgroundedness,33,suggest,,[],21,Yes,"Although I am a native english speaker, I thought this was quite challenging. ",2,1,Female,English,Chrome,Mac,900,1440,6.61215,
79,condition1,0.7,NA,5,verb_focus,Hanako said: Igor didn't <strong>SHRIEK</strong> that Penny won the lottery.,11,NA,4716,acceptability,34,shriek,,[],21,Yes,"Although I am a native english speaker, I thought this was quite challenging. ",2,1,Female,English,Chrome,Mac,900,1440,6.61215,
79,condition1,1,NA,5,filler_good_1,Hanako said: Nancy didn't suspect that Julian ate the <strong>LAST CUPCAKE</strong>.,103,NA,3368,acceptability,35,suspect,,[],21,Yes,"Although I am a native english speaker, I thought this was quite challenging. ",2,1,Female,English,Chrome,Mac,900,1440,6.61215,
79,condition1,NA,incorrect,5,filler_good_2,Hanako said: <strong>JULIAN</strong> didn't guess that Charlie received a message.,110,"What Charlie received, according to Julian.",4915,backgroundedness,36,guess,,[],21,Yes,"Although I am a native english speaker, I thought this was quite challenging. ",2,1,Female,English,Chrome,Mac,900,1440,6.61215,
82,condition1,0.95,NA,practice,practice_acceptability_good_1,Hanako said: Fiona didn't buy <strong>PINEAPPLES</strong>.,201,,,acceptability,0,NA,0,[],21,Yes,,2,0,Female,English,Safari,iPhone/iPod,896,414,8.043783333333334,
82,condition1,NA,correct,practice,practice_bg_good_2,Hanako said: Vera didn't <strong>DRIVE</strong> to Michigan.,202,How Vera travelled to Michigan.,,backgroundedness,0,NA,,[],21,Yes,,2,0,Female,English,Safari,iPhone/iPod,896,414,8.043783333333334,
82,condition1,0,NA,practice,practice_accpetability_bad_2,Hanako said: Prisha doesn't speak <strong>KOREAN</strong>.,204,,,acceptability,0,NA,1,[],21,Yes,,2,0,Female,English,Safari,iPhone/iPod,896,414,8.043783333333334,
82,condition1,NA,correct,practice,practice_bg_bad_1,Hanako said: Hank didn't buy the <strong>RED</strong> car.,203,Which car Hank bought.,,backgroundedness,0,NA,,[],21,Yes,,2,0,Female,English,Safari,iPhone/iPod,896,414,8.043783333333334,
82,condition1,NA,correct,0,filler_bad_1,Hanako said: Emily didn't say that <strong>PAUL</strong> drafted the letter.,113,"Who drafted the letter, according to Emily.",9304,backgroundedness,1,say,,[],21,Yes,,2,0,Female,English,Safari,iPhone/iPod,896,414,8.043783333333334,
82,condition1,NA,correct,0,filler_bad_2,Hanako said: Rui didn't imply that <strong>CAROL</strong>'s brother signed the contract.,119,"Whose brother signed the contract, according to Rui.",21103,backgroundedness,2,imply,,[],21,Yes,,2,0,Female,English,Safari,iPhone/iPod,896,414,8.043783333333334,
82,condition1,0.76,NA,0,embed_focus,Hanako said: Chandler didn't moan that Tia brought her <strong>PARENTS</strong>.,12,NA,18675,acceptability,3,moan,,[],21,Yes,,2,0,Female,English,Safari,iPhone/iPod,896,414,8.043783333333334,
82,condition1,0.16,NA,0,verb_focus,Hanako said: Igor didn't <strong>SHRIEK</strong> that Penny won the lottery.,11,NA,17563,acceptability,4,shriek,,[],21,Yes,,2,0,Female,English,Safari,iPhone/iPod,896,414,8.043783333333334,
82,condition1,NA,correct,0,filler_good_2,Hanako said: <strong>JESS</strong> didn't reveal that Todd went out with Betty.,111,Who revealed that Todd went out with Betty.,13585,backgroundedness,5,reveal,,[],21,Yes,,2,0,Female,English,Safari,iPhone/iPod,896,414,8.043783333333334,
82,condition1,0.97,NA,0,filler_good_1,Hanako said: Ollie didn't think that Doug would invite the <strong>MAYOR</strong>.,102,NA,6806,acceptability,6,think,,[],21,Yes,,2,0,Female,English,Safari,iPhone/iPod,896,414,8.043783333333334,
82,condition1,NA,correct,1,filler_bad_2,Hanako said: Jamal didn't expect that the book about <strong>ASTRONOMY</strong> was on the shelf.,124,"Which book was on the shelf, according to Jamal.",11427,backgroundedness,7,expect,,[],21,Yes,,2,0,Female,English,Safari,iPhone/iPod,896,414,8.043783333333334,
82,condition1,0.97,NA,1,embed_focus,Hanako said: Fatima didn't murmur that Omar had dinner with his <strong>MANAGER</strong>.,10,NA,16557,acceptability,8,murmur,,[],21,Yes,,2,0,Female,English,Safari,iPhone/iPod,896,414,8.043783333333334,
82,condition1,0.04,NA,1,verb_focus,Hanako said: Yash didn't <strong>WHINE</strong> that Ming forgot her phone.,9,NA,10488,acceptability,9,whine,,[],21,Yes,,2,0,Female,English,Safari,iPhone/iPod,896,414,8.043783333333334,
82,condition1,NA,correct,1,filler_bad_1,Hanako said: Tony didn't suggest that <strong>LISA</strong> was in the office.,116,"Who was in the office, according to Tony.",8558,backgroundedness,10,suggest,,[],21,Yes,,2,0,Female,English,Safari,iPhone/iPod,896,414,8.043783333333334,
82,condition1,0.97,NA,1,filler_good_1,Hanako said: Grace didn't sugguest that Karen wrote a <strong>BOOK</strong>.,104,NA,15989,acceptability,11,suggest,,[],21,Yes,,2,0,Female,English,Safari,iPhone/iPod,896,414,8.043783333333334,
82,condition1,NA,correct,1,filler_good_2,Hanako said: <strong>JULIAN</strong> didn't guess that Charlie received a message.,110,Who guessed that Charlie received a message.,8232,backgroundedness,12,guess,,[],21,Yes,,2,0,Female,English,Safari,iPhone/iPod,896,414,8.043783333333334,
82,condition1,NA,correct,2,filler_bad_1,Hanako said: Tim didn't suspect that <strong>JASON</strong> drank the beer. ,115,"Who drank the beer, according to Tim.",7342,backgroundedness,13,suspect,,[],21,Yes,,2,0,Female,English,Safari,iPhone/iPod,896,414,8.043783333333334,
82,condition1,0.03,NA,2,verb_focus,Hanako said: Laura didn't <strong>MUTTER</strong> that Brandon broke his laptop.,4,NA,4557,acceptability,14,mutter,,[],21,Yes,,2,0,Female,English,Safari,iPhone/iPod,896,414,8.043783333333334,
82,condition1,0.96,NA,2,embed_focus,Hanako said: Bill didn't shout that Dan knew the <strong>PROFESSOR</strong>.,5,NA,5815,acceptability,15,shout,,[],21,Yes,,2,0,Female,English,Safari,iPhone/iPod,896,414,8.043783333333334,
82,condition1,NA,correct,2,filler_good_2,Hanako said: <strong>MATTHEW</strong> didn't hope that Dana brought a gift.,108,Who hoped that Dana brought a gift.,11992,backgroundedness,16,hope,,[],21,Yes,,2,0,Female,English,Safari,iPhone/iPod,896,414,8.043783333333334,
82,condition1,NA,correct,2,filler_bad_2,Hanako said: Ted didn't insist that <strong>EVA</strong>'s uncle should stay for dinner. ,121,"Whose uncle should stay for dinner, according to Ted.",10198,backgroundedness,17,insist,,[],21,Yes,,2,0,Female,English,Safari,iPhone/iPod,896,414,8.043783333333334,
82,condition1,0.97,NA,2,filler_good_1,Hanako said: Hannah didn't say that George emailed the <strong>STUDENTS</strong>.,101,NA,6225,acceptability,18,say,,[],21,Yes,,2,0,Female,English,Safari,iPhone/iPod,896,414,8.043783333333334,
82,condition1,0.99,NA,3,filler_good_1,Hanako said: Charlie didn't expect that Maddie would call her <strong>ROOMMATE</strong>.,106,NA,5591,acceptability,19,expect,,[],21,Yes,,2,0,Female,English,Safari,iPhone/iPod,896,414,8.043783333333334,
82,condition1,NA,correct,3,filler_bad_2,Hanako said: Donald didn't reveal that <strong>KRISHNA</strong>'s parents were moving to Texas.,123,"Whose parents were moving to Texas, according to Donald.",9404,backgroundedness,20,reveal,,[],21,Yes,,2,0,Female,English,Safari,iPhone/iPod,896,414,8.043783333333334,
82,condition1,NA,correct,3,filler_good_2,Hanako said: <strong>RONALD</strong> didn't imply that Jacy rented the truck.,107,Who implied that Jacy rented the truck.,6161,backgroundedness,21,imply,,[],21,Yes,,2,0,Female,English,Safari,iPhone/iPod,896,414,8.043783333333334,
82,condition1,0.95,NA,3,embed_focus,Hanako said: Ashley didn't groan that Hasan talked to the <strong>DETECTIVES</strong>.,8,NA,7790,acceptability,22,groan,,[],21,Yes,,2,0,Female,English,Safari,iPhone/iPod,896,414,8.043783333333334,
82,condition1,NA,correct,3,filler_bad_1,Hanako said: Ben didn't expect that <strong>LAURA</strong> would order pizza.,118,"Who would order pizza, according to Ben.",4833,backgroundedness,23,expect,,[],21,Yes,,2,0,Female,English,Safari,iPhone/iPod,896,414,8.043783333333334,
82,condition1,0.02,NA,3,verb_focus,Hanako said: Howard didn't <strong>MUMBLE</strong> that Alex bought a birthday cake.,3,NA,16141,acceptability,24,mumble,,[],21,Yes,,2,0,Female,English,Safari,iPhone/iPod,896,414,8.043783333333334,
82,condition1,0.01,NA,4,verb_focus,Hanako said: Amy didn't <strong>SCREAM</strong> that Charlie saw the robber.,6,NA,5823,acceptability,25,scream,,[],21,Yes,,2,0,Female,English,Safari,iPhone/iPod,896,414,8.043783333333334,
82,condition1,NA,correct,4,filler_good_2,Hanako said: <strong>KATE</strong> didn't insist that Zack broke the plates.,109,Who insisted that Zack broke the plates.,7542,backgroundedness,26,insist,,[],21,Yes,,2,0,Female,English,Safari,iPhone/iPod,896,414,8.043783333333334,
82,condition1,0.97,NA,4,embed_focus,Hanako said: Jake didn't yell that Yumi found the <strong>WALLET</strong>.,7,NA,4507,acceptability,27,yell,,[],21,Yes,,2,0,Female,English,Safari,iPhone/iPod,896,414,8.043783333333334,
82,condition1,NA,correct,4,filler_bad_1,Hanako said: Helen didn't think that <strong>MARC</strong> cut the bread. ,114,"Who cut the bread, according to Helen.",3908,backgroundedness,28,think,,[],21,Yes,,2,0,Female,English,Safari,iPhone/iPod,896,414,8.043783333333334,
82,condition1,NA,correct,4,filler_bad_2,Hanako said: Jessie didn't guess that the assistant to the <strong>DIRECTOR</strong> would give the presentation.,122,"Whose assistant would give the presentation, according to Jessie.",7923,backgroundedness,29,guess,,[],21,Yes,,2,0,Female,English,Safari,iPhone/iPod,896,414,8.043783333333334,
82,condition1,0.97,NA,4,filler_good_1,Hanako said: Danny didn't believe that Jennifer got a <strong>CAT</strong>.,105,NA,5366,acceptability,30,believe,,[],21,Yes,,2,0,Female,English,Safari,iPhone/iPod,896,414,8.043783333333334,
82,condition1,NA,correct,5,filler_bad_2,Hanako said: Frankie didn't hope that the agent of the <strong>GUITARIST</strong> would show up. ,120,"Whose agent would show up, according to Frankie.",5608,backgroundedness,31,hope,,[],21,Yes,,2,0,Female,English,Safari,iPhone/iPod,896,414,8.043783333333334,
82,condition1,NA,correct,5,filler_good_2,Hanako said: <strong>SALLY</strong> didn't expect that Tony would visit George.,112,Who expected that Tony would visit George.,5481,backgroundedness,32,expect,,[],21,Yes,,2,0,Female,English,Safari,iPhone/iPod,896,414,8.043783333333334,
82,condition1,0.02,NA,5,verb_focus,Hanako said: John didn't <strong>WHISPER</strong> that Mary met with the lawyer.,1,NA,7600,acceptability,33,whisper,,[],21,Yes,,2,0,Female,English,Safari,iPhone/iPod,896,414,8.043783333333334,
82,condition1,0.99,NA,5,filler_good_1,Hanako said: Nancy didn't suspect that Julian ate the <strong>LAST CUPCAKE</strong>.,103,NA,5582,acceptability,34,suspect,,[],21,Yes,,2,0,Female,English,Safari,iPhone/iPod,896,414,8.043783333333334,
82,condition1,0.95,NA,5,embed_focus,Hanako said: Emma didn't stammer that Kevin lost the <strong>KEYS</strong>.,2,NA,5932,acceptability,35,stammer,,[],21,Yes,,2,0,Female,English,Safari,iPhone/iPod,896,414,8.043783333333334,
82,condition1,NA,correct,5,filler_bad_1,Hanako said: Larry didn't believe that <strong>NICK</strong> cooked dinner.,117,"Who cooked dinner, according to Larry.",6674,backgroundedness,36,believe,,[],21,Yes,,2,0,Female,English,Safari,iPhone/iPod,896,414,8.043783333333334,
78,condition1,0.7,NA,practice,practice_acceptability_good_1,Hanako said: Fiona didn't buy <strong>PINEAPPLES</strong>.,201,,,acceptability,0,NA,0,[],27,Yes,n/a,4,2,Female,english,Chrome,Windows,1080,1920,13.690283333333332,
78,condition1,NA,correct,practice,practice_bg_good_2,Hanako said: Vera didn't <strong>DRIVE</strong> to Michigan.,202,How Vera travelled to Michigan.,,backgroundedness,0,NA,,[],27,Yes,n/a,4,2,Female,english,Chrome,Windows,1080,1920,13.690283333333332,
78,condition1,0.15,NA,practice,practice_accpetability_bad_2,Hanako said: Prisha doesn't speak <strong>KOREAN</strong>.,204,,,acceptability,0,NA,0,[],27,Yes,n/a,4,2,Female,english,Chrome,Windows,1080,1920,13.690283333333332,
78,condition1,NA,correct,practice,practice_bg_bad_1,Hanako said: Hank didn't buy the <strong>RED</strong> car.,203,Which car Hank bought.,,backgroundedness,0,NA,,[],27,Yes,n/a,4,2,Female,english,Chrome,Windows,1080,1920,13.690283333333332,
78,condition1,NA,incorrect,0,filler_bad_2,Hanako said: Rui didn't imply that <strong>CAROL</strong>'s brother signed the contract.,119,"What Carol's brother signed, according to Rui.",45944,backgroundedness,1,imply,,[],27,Yes,n/a,4,2,Female,english,Chrome,Windows,1080,1920,13.690283333333332,
78,condition1,NA,incorrect,0,filler_good_2,Hanako said: <strong>SALLY</strong> didn't expect that Tony would visit George.,112,"Who Tony would visit, according to Sally.",29544,backgroundedness,2,expect,,[],27,Yes,n/a,4,2,Female,english,Chrome,Windows,1080,1920,13.690283333333332,
78,condition1,NA,correct,0,filler_bad_1,Hanako said: Tim didn't suspect that <strong>JASON</strong> drank the beer. ,115,"Who drank the beer, according to Tim.",27872,backgroundedness,3,suspect,,[],27,Yes,n/a,4,2,Female,english,Chrome,Windows,1080,1920,13.690283333333332,
78,condition1,0.82,NA,0,filler_good_1,Hanako said: Charlie didn't expect that Maddie would call her <strong>ROOMMATE</strong>.,106,NA,12976,acceptability,4,expect,,[],27,Yes,n/a,4,2,Female,english,Chrome,Windows,1080,1920,13.690283333333332,
78,condition1,0.07,NA,0,verb_focus,Hanako said: Igor didn't <strong>SHRIEK</strong> that Penny won the lottery.,11,NA,10016,acceptability,5,shriek,,[],27,Yes,n/a,4,2,Female,english,Chrome,Windows,1080,1920,13.690283333333332,
78,condition1,0.75,NA,0,embed_focus,Hanako said: Bill didn't shout that Dan knew the <strong>PROFESSOR</strong>.,5,NA,9896,acceptability,6,shout,,[],27,Yes,n/a,4,2,Female,english,Chrome,Windows,1080,1920,13.690283333333332,
78,condition1,0.71,NA,1,verb_focus,Hanako said: Laura didn't <strong>MUTTER</strong> that Brandon broke his laptop.,4,NA,5647,acceptability,7,mutter,,[],27,Yes,n/a,4,2,Female,english,Chrome,Windows,1080,1920,13.690283333333332,
78,condition1,0.11,NA,1,embed_focus,Hanako said: Chandler didn't moan that Tia brought her <strong>PARENTS</strong>.,12,NA,22816,acceptability,8,moan,,[],27,Yes,n/a,4,2,Female,english,Chrome,Windows,1080,1920,13.690283333333332,
78,condition1,0.77,NA,1,filler_good_1,Hanako said: Ollie didn't think that Doug would invite the <strong>MAYOR</strong>.,102,NA,4992,acceptability,9,think,,[],27,Yes,n/a,4,2,Female,english,Chrome,Windows,1080,1920,13.690283333333332,
78,condition1,NA,incorrect,1,filler_good_2,Hanako said: <strong>RONALD</strong> didn't imply that Jacy rented the truck.,107,"What Jacy rented, according to Ronald.",27414,backgroundedness,10,imply,,[],27,Yes,n/a,4,2,Female,english,Chrome,Windows,1080,1920,13.690283333333332,
78,condition1,NA,correct,1,filler_bad_1,Hanako said: Ben didn't expect that <strong>LAURA</strong> would order pizza.,118,"Who would order pizza, according to Ben.",11528,backgroundedness,11,expect,,[],27,Yes,n/a,4,2,Female,english,Chrome,Windows,1080,1920,13.690283333333332,
78,condition1,NA,incorrect,1,filler_bad_2,Hanako said: Frankie didn't hope that the agent of the <strong>GUITARIST</strong> would show up. ,120,"What the agent of the guitarist did, according to Frankie.",37849,backgroundedness,12,hope,,[],27,Yes,n/a,4,2,Female,english,Chrome,Windows,1080,1920,13.690283333333332,
78,condition1,NA,incorrect,2,filler_bad_2,Hanako said: Donald didn't reveal that <strong>KRISHNA</strong>'s parents were moving to Texas.,123,"Where Krishna's parents were moving to, according to Donald.",36793,backgroundedness,13,reveal,,[],27,Yes,n/a,4,2,Female,english,Chrome,Windows,1080,1920,13.690283333333332,
78,condition1,0.82,NA,2,filler_good_1,Hanako said: Nancy didn't suspect that Julian ate the <strong>LAST CUPCAKE</strong>.,103,NA,10503,acceptability,14,suspect,,[],27,Yes,n/a,4,2,Female,english,Chrome,Windows,1080,1920,13.690283333333332,
78,condition1,NA,correct,2,filler_good_2,Hanako said: <strong>MATTHEW</strong> didn't hope that Dana brought a gift.,108,Who hoped that Dana brought a gift.,25632,backgroundedness,15,hope,,[],27,Yes,n/a,4,2,Female,english,Chrome,Windows,1080,1920,13.690283333333332,
78,condition1,0.1,NA,2,verb_focus,Hanako said: Jake didn't <strong>YELL</strong> that Yumi found the wallet.,7,NA,8528,acceptability,16,yell,,[],27,Yes,n/a,4,2,Female,english,Chrome,Windows,1080,1920,13.690283333333332,
78,condition1,NA,correct,2,filler_bad_1,Hanako said: Emily didn't say that <strong>PAUL</strong> drafted the letter.,113,"Who drafted the letter, according to Emily.",20424,backgroundedness,17,say,,[],27,Yes,n/a,4,2,Female,english,Chrome,Windows,1080,1920,13.690283333333332,
78,condition1,0.85,NA,2,embed_focus,Hanako said: Yash didn't whine that Ming forgot her <strong>PHONE</strong>.,9,NA,9032,acceptability,18,whine,,[],27,Yes,n/a,4,2,Female,english,Chrome,Windows,1080,1920,13.690283333333332,
78,condition1,0.92,NA,3,embed_focus,Hanako said: Fatima didn't murmur that Omar had dinner with his <strong>MANAGER</strong>.,10,NA,14744,acceptability,19,murmur,,[],27,Yes,n/a,4,2,Female,english,Chrome,Windows,1080,1920,13.690283333333332,
78,condition1,NA,correct,3,filler_bad_2,Hanako said: Jessie didn't guess that the assistant to the <strong>DIRECTOR</strong> would give the presentation.,122,"Whose assistant would give the presentation, according to Jessie.",20704,backgroundedness,20,guess,,[],27,Yes,n/a,4,2,Female,english,Chrome,Windows,1080,1920,13.690283333333332,
78,condition1,0.28,NA,3,verb_focus,Hanako said: Howard didn't <strong>MUMBLE</strong> that Alex bought a birthday cake.,3,NA,16056,acceptability,21,mumble,,[],27,Yes,n/a,4,2,Female,english,Chrome,Windows,1080,1920,13.690283333333332,
78,condition1,0.86,NA,3,filler_good_1,Hanako said: Danny didn't believe that Jennifer got a <strong>CAT</strong>.,105,NA,7216,acceptability,22,believe,,[],27,Yes,n/a,4,2,Female,english,Chrome,Windows,1080,1920,13.690283333333332,
78,condition1,NA,correct,3,filler_bad_1,Hanako said: Larry didn't believe that <strong>NICK</strong> cooked dinner.,117,"Who cooked dinner, according to Larry.",8360,backgroundedness,23,believe,,[],27,Yes,n/a,4,2,Female,english,Chrome,Windows,1080,1920,13.690283333333332,
78,condition1,NA,correct,3,filler_good_2,Hanako said: <strong>JESS</strong> didn't reveal that Todd went out with Betty.,111,Who revealed that Todd went out with Betty.,15688,backgroundedness,24,reveal,,[],27,Yes,n/a,4,2,Female,english,Chrome,Windows,1080,1920,13.690283333333332,
78,condition1,NA,correct,4,filler_good_2,Hanako said: <strong>JULIAN</strong> didn't guess that Charlie received a message.,110,Who guessed that Charlie received a message.,13495,backgroundedness,25,guess,,[],27,Yes,n/a,4,2,Female,english,Chrome,Windows,1080,1920,13.690283333333332,
78,condition1,0.84,NA,4,embed_focus,Hanako said: Emma didn't stammer that Kevin lost the <strong>KEYS</strong>.,2,NA,7240,acceptability,26,stammer,,[],27,Yes,n/a,4,2,Female,english,Chrome,Windows,1080,1920,13.690283333333332,
78,condition1,NA,incorrect,4,filler_bad_2,Hanako said: Ted didn't insist that <strong>EVA</strong>'s uncle should stay for dinner. ,121,"What Eva's uncle should do, according to Ted.",43104,backgroundedness,27,insist,,[],27,Yes,n/a,4,2,Female,english,Chrome,Windows,1080,1920,13.690283333333332,
78,condition1,0.88,NA,4,filler_good_1,Hanako said: Grace didn't sugguest that Karen wrote a <strong>BOOK</strong>.,104,NA,17096,acceptability,28,suggest,,[],27,Yes,n/a,4,2,Female,english,Chrome,Windows,1080,1920,13.690283333333332,
78,condition1,NA,correct,4,filler_bad_1,Hanako said: Helen didn't think that <strong>MARC</strong> cut the bread. ,114,"Who cut the bread, according to Helen.",11624,backgroundedness,29,think,,[],27,Yes,n/a,4,2,Female,english,Chrome,Windows,1080,1920,13.690283333333332,
78,condition1,0.88,NA,4,verb_focus,Hanako said: Amy didn't <strong>SCREAM</strong> that Charlie saw the robber.,6,NA,86127,acceptability,30,scream,,[],27,Yes,n/a,4,2,Female,english,Chrome,Windows,1080,1920,13.690283333333332,
78,condition1,NA,correct,5,filler_bad_1,Hanako said: Tony didn't suggest that <strong>LISA</strong> was in the office.,116,"Who was in the office, according to Tony.",9008,backgroundedness,31,suggest,,[],27,Yes,n/a,4,2,Female,english,Chrome,Windows,1080,1920,13.690283333333332,
78,condition1,0.79,NA,5,filler_good_1,Hanako said: Hannah didn't say that George emailed the <strong>STUDENTS</strong>.,101,NA,5272,acceptability,32,say,,[],27,Yes,n/a,4,2,Female,english,Chrome,Windows,1080,1920,13.690283333333332,
78,condition1,0.16,NA,5,verb_focus,Hanako said: Ashley didn't <strong>GROAN</strong> that Hasan talked to the detectives.,8,NA,7616,acceptability,33,groan,,[],27,Yes,n/a,4,2,Female,english,Chrome,Windows,1080,1920,13.690283333333332,
78,condition1,0.81,NA,5,embed_focus,Hanako said: John didn't whisper that Mary met with the <strong>LAWYER</strong>.,1,NA,5792,acceptability,34,whisper,,[],27,Yes,n/a,4,2,Female,english,Chrome,Windows,1080,1920,13.690283333333332,
78,condition1,NA,correct,5,filler_good_2,Hanako said: <strong>KATE</strong> didn't insist that Zack broke the plates.,109,Who insisted that Zack broke the plates.,9408,backgroundedness,35,insist,,[],27,Yes,n/a,4,2,Female,english,Chrome,Windows,1080,1920,13.690283333333332,
78,condition1,NA,correct,5,filler_bad_2,Hanako said: Jamal didn't expect that the book about <strong>ASTRONOMY</strong> was on the shelf.,124,"Which book was on the shelf, according to Jamal.",12914,backgroundedness,36,expect,,[],27,Yes,n/a,4,2,Female,english,Chrome,Windows,1080,1920,13.690283333333332,
84,condition1,1,NA,practice,practice_acceptability_good_1,Hanako said: Fiona didn't buy <strong>PINEAPPLES</strong>.,201,,,acceptability,0,NA,1,[],20,Confused,no,1,1,Male,english,Safari,Mac,900,1440,21.52815,
84,condition1,NA,correct,practice,practice_bg_good_2,Hanako said: Vera didn't <strong>DRIVE</strong> to Michigan.,202,How Vera travelled to Michigan.,,backgroundedness,0,NA,,[],20,Confused,no,1,1,Male,english,Safari,Mac,900,1440,21.52815,
84,condition1,0,NA,practice,practice_accpetability_bad_2,Hanako said: Prisha doesn't speak <strong>KOREAN</strong>.,204,,,acceptability,0,NA,0,[],20,Confused,no,1,1,Male,english,Safari,Mac,900,1440,21.52815,
84,condition1,NA,incorrect,practice,practice_bg_bad_1,Hanako said: Hank didn't buy the <strong>RED</strong> car.,203,Who bought the red car.,,backgroundedness,0,NA,,[],20,Confused,no,1,1,Male,english,Safari,Mac,900,1440,21.52815,
84,condition1,NA,incorrect,0,filler_good_2,Hanako said: <strong>SALLY</strong> didn't expect that Tony would visit George.,112,"Who Tony would visit, according to Sally.",144020,backgroundedness,1,expect,,[],20,Confused,no,1,1,Male,english,Safari,Mac,900,1440,21.52815,
84,condition1,1,NA,0,verb_focus,Hanako said: Igor didn't <strong>SHRIEK</strong> that Penny won the lottery.,11,NA,19769,acceptability,2,shriek,,[],20,Confused,no,1,1,Male,english,Safari,Mac,900,1440,21.52815,
84,condition1,1,NA,0,embed_focus,Hanako said: Ashley didn't groan that Hasan talked to the <strong>DETECTIVES</strong>.,8,NA,13033,acceptability,3,groan,,[],20,Confused,no,1,1,Male,english,Safari,Mac,900,1440,21.52815,
84,condition1,NA,correct,0,filler_bad_2,Hanako said: Donald didn't reveal that <strong>KRISHNA</strong>'s parents were moving to Texas.,123,"Whose parents were moving to Texas, according to Donald.",104253,backgroundedness,4,reveal,,[],20,Confused,no,1,1,Male,english,Safari,Mac,900,1440,21.52815,
84,condition1,1,NA,0,filler_good_1,Hanako said: Grace didn't sugguest that Karen wrote a <strong>BOOK</strong>.,104,NA,86885,acceptability,5,suggest,,[],20,Confused,no,1,1,Male,english,Safari,Mac,900,1440,21.52815,
84,condition1,NA,correct,0,filler_bad_1,Hanako said: Tony didn't suggest that <strong>LISA</strong> was in the office.,116,"Who was in the office, according to Tony.",16346,backgroundedness,6,suggest,,[],20,Confused,no,1,1,Male,english,Safari,Mac,900,1440,21.52815,
84,condition1,1,NA,1,verb_focus,Hanako said: Emma didn't <strong>STAMMER</strong> that Kevin lost the keys.,2,NA,13605,acceptability,7,stammer,,[],20,Confused,no,1,1,Male,english,Safari,Mac,900,1440,21.52815,
84,condition1,NA,incorrect,1,filler_good_2,Hanako said: <strong>JULIAN</strong> didn't guess that Charlie received a message.,110,"What Charlie received, according to Julian.",18512,backgroundedness,8,guess,,[],20,Confused,no,1,1,Male,english,Safari,Mac,900,1440,21.52815,
84,condition1,NA,incorrect,1,filler_bad_2,Hanako said: Ted didn't insist that <strong>EVA</strong>'s uncle should stay for dinner. ,121,"What Eva's uncle should do, according to Ted.",15565,backgroundedness,9,insist,,[],20,Confused,no,1,1,Male,english,Safari,Mac,900,1440,21.52815,
84,condition1,NA,correct,1,filler_bad_1,Hanako said: Ben didn't expect that <strong>LAURA</strong> would order pizza.,118,"Who would order pizza, according to Ben.",81226,backgroundedness,10,expect,,[],20,Confused,no,1,1,Male,english,Safari,Mac,900,1440,21.52815,
84,condition1,1,NA,1,filler_good_1,Hanako said: Danny didn't believe that Jennifer got a <strong>CAT</strong>.,105,NA,14150,acceptability,11,believe,,[],20,Confused,no,1,1,Male,english,Safari,Mac,900,1440,21.52815,
84,condition1,1,NA,1,embed_focus,Hanako said: Chandler didn't moan that Tia brought her <strong>PARENTS</strong>.,12,NA,9242,acceptability,12,moan,,[],20,Confused,no,1,1,Male,english,Safari,Mac,900,1440,21.52815,
84,condition1,0.71,NA,2,verb_focus,Hanako said: John didn't <strong>WHISPER</strong> that Mary met with the lawyer.,1,NA,7889,acceptability,13,whisper,,[],20,Confused,no,1,1,Male,english,Safari,Mac,900,1440,21.52815,
84,condition1,NA,correct,2,filler_bad_1,Hanako said: Tim didn't suspect that <strong>JASON</strong> drank the beer. ,115,"Who drank the beer, according to Tim.",26896,backgroundedness,14,suspect,,[],20,Confused,no,1,1,Male,english,Safari,Mac,900,1440,21.52815,
84,condition1,NA,incorrect,2,filler_bad_2,Hanako said: Frankie didn't hope that the agent of the <strong>GUITARIST</strong> would show up. ,120,"What the agent of the guitarist did, according to Frankie.",14451,backgroundedness,15,hope,,[],20,Confused,no,1,1,Male,english,Safari,Mac,900,1440,21.52815,
84,condition1,1,NA,2,filler_good_1,Hanako said: Ollie didn't think that Doug would invite the <strong>MAYOR</strong>.,102,NA,11771,acceptability,16,think,,[],20,Confused,no,1,1,Male,english,Safari,Mac,900,1440,21.52815,
84,condition1,0.47,NA,2,embed_focus,Hanako said: Amy didn't scream that Charlie saw the <strong>ROBBER</strong>.,6,NA,7859,acceptability,17,scream,,[],20,Confused,no,1,1,Male,english,Safari,Mac,900,1440,21.52815,
84,condition1,NA,incorrect,2,filler_good_2,Hanako said: <strong>RONALD</strong> didn't imply that Jacy rented the truck.,107,"What Jacy rented, according to Ronald.",23381,backgroundedness,18,imply,,[],20,Confused,no,1,1,Male,english,Safari,Mac,900,1440,21.52815,
84,condition1,0.49,NA,3,embed_focus,Hanako said: Bill didn't shout that Dan knew the <strong>PROFESSOR</strong>.,5,NA,11056,acceptability,19,shout,,[],20,Confused,no,1,1,Male,english,Safari,Mac,900,1440,21.52815,
84,condition1,NA,incorrect,3,filler_bad_1,Hanako said: Emily didn't say that <strong>PAUL</strong> drafted the letter.,113,Who said that Paul drafted the letter.,25835,backgroundedness,20,say,,[],20,Confused,no,1,1,Male,english,Safari,Mac,900,1440,21.52815,
84,condition1,1,NA,3,filler_good_1,Hanako said: Nancy didn't suspect that Julian ate the <strong>LAST CUPCAKE</strong>.,103,NA,11507,acceptability,21,suspect,,[],20,Confused,no,1,1,Male,english,Safari,Mac,900,1440,21.52815,
84,condition1,NA,correct,3,filler_bad_2,Hanako said: Jamal didn't expect that the book about <strong>ASTRONOMY</strong> was on the shelf.,124,"Which book was on the shelf, according to Jamal.",19871,backgroundedness,22,expect,,[],20,Confused,no,1,1,Male,english,Safari,Mac,900,1440,21.52815,
84,condition1,0.96,NA,3,verb_focus,Hanako said: Yash didn't <strong>WHINE</strong> that Ming forgot her phone.,9,NA,11560,acceptability,23,whine,,[],20,Confused,no,1,1,Male,english,Safari,Mac,900,1440,21.52815,
84,condition1,NA,correct,3,filler_good_2,Hanako said: <strong>KATE</strong> didn't insist that Zack broke the plates.,109,Who insisted that Zack broke the plates.,23394,backgroundedness,24,insist,,[],20,Confused,no,1,1,Male,english,Safari,Mac,900,1440,21.52815,
84,condition1,NA,correct,4,filler_bad_1,Hanako said: Helen didn't think that <strong>MARC</strong> cut the bread. ,114,"Who cut the bread, according to Helen.",25532,backgroundedness,25,think,,[],20,Confused,no,1,1,Male,english,Safari,Mac,900,1440,21.52815,
84,condition1,NA,correct,4,filler_bad_2,Hanako said: Rui didn't imply that <strong>CAROL</strong>'s brother signed the contract.,119,"Whose brother signed the contract, according to Rui.",26028,backgroundedness,26,imply,,[],20,Confused,no,1,1,Male,english,Safari,Mac,900,1440,21.52815,
84,condition1,1,NA,4,filler_good_1,Hanako said: Hannah didn't say that George emailed the <strong>STUDENTS</strong>.,101,NA,8474,acceptability,27,say,,[],20,Confused,no,1,1,Male,english,Safari,Mac,900,1440,21.52815,
84,condition1,NA,incorrect,4,filler_good_2,Hanako said: <strong>MATTHEW</strong> didn't hope that Dana brought a gift.,108,"What Dana brought, according to Matthew.",144314,backgroundedness,28,hope,,[],20,Confused,no,1,1,Male,english,Safari,Mac,900,1440,21.52815,
84,condition1,1,NA,4,embed_focus,Hanako said: Jake didn't yell that Yumi found the <strong>WALLET</strong>.,7,NA,14491,acceptability,29,yell,,[],20,Confused,no,1,1,Male,english,Safari,Mac,900,1440,21.52815,
84,condition1,1,NA,4,verb_focus,Hanako said: Laura didn't <strong>MUTTER</strong> that Brandon broke his laptop.,4,NA,12312,acceptability,30,mutter,,[],20,Confused,no,1,1,Male,english,Safari,Mac,900,1440,21.52815,
84,condition1,1,NA,5,embed_focus,Hanako said: Howard didn't mumble that Alex bought a <strong>BIRTHDAY CAKE</strong>.,3,NA,12920,acceptability,31,mumble,,[],20,Confused,no,1,1,Male,english,Safari,Mac,900,1440,21.52815,
84,condition1,NA,incorrect,5,filler_good_2,Hanako said: <strong>JESS</strong> didn't reveal that Todd went out with Betty.,111,"Who Todd went out with, according to Jess.",15715,backgroundedness,32,reveal,,[],20,Confused,no,1,1,Male,english,Safari,Mac,900,1440,21.52815,
84,condition1,NA,correct,5,filler_bad_1,Hanako said: Larry didn't believe that <strong>NICK</strong> cooked dinner.,117,"Who cooked dinner, according to Larry.",13657,backgroundedness,33,believe,,[],20,Confused,no,1,1,Male,english,Safari,Mac,900,1440,21.52815,
84,condition1,NA,incorrect,5,filler_bad_2,Hanako said: Jessie didn't guess that the assistant to the <strong>DIRECTOR</strong> would give the presentation.,122,"What the assistant to the director would do, according to Jessie.",48561,backgroundedness,34,guess,,[],20,Confused,no,1,1,Male,english,Safari,Mac,900,1440,21.52815,
84,condition1,1,NA,5,filler_good_1,Hanako said: Charlie didn't expect that Maddie would call her <strong>ROOMMATE</strong>.,106,NA,22321,acceptability,35,expect,,[],20,Confused,no,1,1,Male,english,Safari,Mac,900,1440,21.52815,
84,condition1,0,NA,5,verb_focus,Hanako said: Fatima didn't <strong>MURMUR</strong> that Omar had dinner with his manager.,10,NA,7157,acceptability,36,murmur,,[],20,Confused,no,1,1,Male,english,Safari,Mac,900,1440,21.52815,
