workerid,proliferate.condition,acceptability_rating,bg_response,block_id,condition,context,item_id,original_bg_choice,rt,task,trial_num,verb,wrong_attempts,error
200,condition1,0.85,NA,practice,practice_acceptability_good_1,Hanako said: Fiona didn't buy <b>PINEAPPLES</b>.,201,,,acceptability,0,NA,0,
200,condition1,NA,correct,practice,practice_bg_good_2,Hanako said: Vera didn't <b>DRIVE</b> to Michigan.,202,How Vera travelled to Michigan.,,backgroundedness,0,NA,,
200,condition1,0.22,NA,practice,practice_accpetability_bad_2,Hanako said: Prisha doesn't speak <b>KOREAN</b>.,204,,,acceptability,0,NA,0,
200,condition1,NA,correct,practice,practice_bg_bad_1,Hanako said: Hank didn't buy the <b>RED</b> car.,203,Which car Hank bought.,,backgroundedness,0,NA,,
200,condition1,0.7,NA,0,filler_good,Hanako said: <b>JESS</b> didn't reveal that Todd went out with Betty.,106,NA,20618,acceptability,1,reveal,,
200,condition1,NA,embed,0,embed_focus,Hanako said: Nancy didn't say that Julian ate the <b>CUPCAKE</b>.,309,"What Julian ate, according to Nancy.",20167,backgroundedness,2,say,,
200,condition1,0.17,NA,0,filler_bad,Hanako said: Helen didn't think that Rob and <b>MARC</b> cut the bread. ,107,NA,16599,acceptability,3,think,,
200,condition1,0.61,NA,0,embed_focus,Hanako said: Bill didn't shout that Dan knew the <b>PROFESSOR</b>.,5,NA,13650,acceptability,4,shout,,
200,condition1,0.22,NA,0,verb_focus,Hanako said: Hannah didn't <b>SAY</b> that George emailed the students.,301,NA,22183,acceptability,5,say,,
200,condition1,NA,verb,0,verb_focus,Hanako said: Ashley didn't <b>GROAN</b> that Hasan talked to the detectives.,8,The way Ashley communicated that Hasan talked to the detectives.,24418,backgroundedness,6,groan,,
200,condition1,NA,embed,1,embed_focus,Hanako said: Howard didn't mumble that Alex bought a <b>BIRTHDAY CAKE</b>.,3,"What Alex bought, according to Howard.",39032,backgroundedness,7,mumble,,
200,condition1,0.87,NA,1,filler_good,Hanako said: Ollie didn't think that Doug would invite the <b>MAYOR</b>.,101,NA,9114,acceptability,8,think,,
200,condition1,0.34,NA,1,verb_focus,Hanako said: Tom didn't <b>SAY</b> that Sarah admired her friend.,311,NA,19967,acceptability,9,say,,
200,condition1,0.79,NA,1,embed_focus,Hanako said: Ben didn't say that Laura ordered <b>PIZZA</b>.,307,NA,11150,acceptability,10,say,,
200,condition1,NA,verb,1,verb_focus,Hanako said: Chandler didn't <b>MOAN</b> that Tia brought her parents.,12,The way Chandler communicated that Tia brought her parents.,18669,backgroundedness,11,moan,,
200,condition1,0.23,NA,1,filler_bad,Hanako said: Rui didn't imply that <b>CAROL</b>'s brother signed the contract.,110,NA,13148,acceptability,12,imply,,
200,condition1,0.84,NA,2,filler_good,Hanako said: <b>JULIE</b> didn't guess that Charlie received a message.,105,NA,7218,acceptability,13,guess,,
200,condition1,NA,verb,2,verb_focus,Hanako said: Jake didn't <b>YELL</b> that Yumi found the wallet.,7,The way Jake communicated that Yumi found the wallet.,10317,backgroundedness,14,yell,,
200,condition1,0.25,NA,2,embed_focus,Hanako said: Igor didn't shriek that Penny won the <b>LOTTERY</b>.,11,NA,16315,acceptability,15,shriek,,
200,condition1,0.93,NA,2,filler_bad,Hanako said: Jessie didn't guess that the assistant to the <b>DIRECTOR</b> would give the presentation.,112,NA,9284,acceptability,16,guess,,
200,condition1,0.83,NA,2,embed_focus,Hanako said: Jessie didn't say that Michelle borrowed the <b>COMPUTER</b>.,310,NA,7116,acceptability,17,say,,
200,condition1,NA,verb,2,verb_focus,Hanako said: Emily didn't <b>SAY</b> that Paul drafted the letter.,302,The way Emily communicated that Paul drafted the letter.,9967,backgroundedness,18,say,,
200,condition1,0.35,NA,3,verb_focus,Hanako said: Noah didn't <b>SAY</b> that Sharon wanted a dog.,312,NA,15066,acceptability,19,say,,
200,condition1,NA,embed,3,embed_focus,Hanako said: Emma didn't stammer that Kevin lost the <b>KEYS</b>.,2,"What Kevin lost, according to Emma.",9433,backgroundedness,20,stammer,,
200,condition1,0.24,NA,3,filler_bad,Hanakko said: Larry didn't believe that Karl and <b>NICK</b> cooked dinner.,109,NA,11415,acceptability,21,believe,,
200,condition1,NA,verb,3,verb_focus,Hanako said: John didn't <b>WHISPER</b> that Mary met with the lawyer.,1,The way John communicated that Mary met with the lawyer.,17767,backgroundedness,22,whisper,,
200,condition1,0.85,NA,3,filler_good,Hanako said: Grace didn't suggest that Karen wrote a <b>BOOK</b>.,102,NA,10099,acceptability,23,suggest,,
200,condition1,0.91,NA,3,embed_focus,Hanako said: Danny didn't say that Jennifer got a <b>CAT</b>.,308,NA,6567,acceptability,24,say,,
200,condition1,0.1,NA,4,filler_bad,Hanako said: Tim didn't suspect that Liz and <b>JASON</b> drank the beer. ,108,NA,13033,acceptability,25,suspect,,
200,condition1,0.25,NA,4,verb_focus,Hanako said: Laura didn't <b>MUTTER</b> that Brandon broke his laptop.,4,NA,8416,acceptability,26,mutter,,
200,condition1,0.91,NA,4,filler_good,Hanako said: <b>MATTHEW</b> didn't hope that Dana brought a gift.,104,NA,9199,acceptability,27,hope,,
200,condition1,NA,embed,4,embed_focus,Hanako said: Kate didn't say that Zack broke the <b>PLATES</b>.,306,"What Zack broke, according to Kate.",12917,backgroundedness,28,say,,
200,condition1,0.56,NA,4,verb_focus,Hanako said: Sally didn't <b>SAY</b> that Tony would visit George.,303,NA,23250,acceptability,29,say,,
200,condition1,NA,embed,4,embed_focus,Hanako said: Amy didn't scream that Charlie saw the <b>ROBBER</b>.,6,"Who Charlie saw, according to Amy.",10498,backgroundedness,30,scream,,
200,condition1,NA,embed,5,embed_focus,Hanako said: Yash didn't whine that Ming forgot her <b>PHONE</b>.,9,"What Ming forgot, according to Yash.",11185,backgroundedness,31,whine,,
200,condition1,NA,verb,5,verb_focus,Hanako said: Fatima didn't <b>MURMUR</b> that Omar had dinner with his manager.,10,The way Fatima communicated that Omar had dinner with his manager.,23383,backgroundedness,32,murmur,,
200,condition1,0.94,NA,5,embed_focus,Hanako said: Charlie didn't say that Maddie would call her <b>ROOMMATE</b>.,305,NA,7015,acceptability,33,say,,
200,condition1,0.49,NA,5,filler_bad,Hanako said: Frankie didn't hope that the agent of the <b>GUITARIST</b> would show up. ,111,NA,12217,acceptability,34,hope,,
200,condition1,0.26,NA,5,verb_focus,Hanako said: Tim didn't <b>SAY</b> that Jason drank the beer.,304,NA,7600,acceptability,35,say,,
200,condition1,0.76,NA,5,filler_good,Hanako said: Jean didn't believe that Grant adopted a <b>KITTEN</b>.,103,NA,5550,acceptability,36,believe,,
167,condition1,0.96,NA,practice,practice_acceptability_good_1,Hanako said: Fiona didn't buy <b>PINEAPPLES</b>.,201,,,acceptability,0,NA,0,
167,condition1,NA,correct,practice,practice_bg_good_2,Hanako said: Vera didn't <b>DRIVE</b> to Michigan.,202,How Vera travelled to Michigan.,,backgroundedness,0,NA,,
167,condition1,0.19,NA,practice,practice_accpetability_bad_2,Hanako said: Prisha doesn't speak <b>KOREAN</b>.,204,,,acceptability,0,NA,0,
167,condition1,NA,correct,practice,practice_bg_bad_1,Hanako said: Hank didn't buy the <b>RED</b> car.,203,Which car Hank bought.,,backgroundedness,0,NA,,
167,condition1,0.65,NA,0,verb_focus,Hanako said: Jake didn't <b>YELL</b> that Yumi found the wallet.,7,NA,43541,acceptability,1,yell,,
167,condition1,1,NA,0,filler_good,Hanako said: <b>JESS</b> didn't reveal that Todd went out with Betty.,106,NA,14675,acceptability,2,reveal,,
167,condition1,0.97,NA,0,verb_focus,Hanako said: Jessie didn't <b>SAY</b> that Michelle borrowed the computer.,310,NA,45492,acceptability,3,say,,
167,condition1,0.62,NA,0,filler_bad,Hanako said: Frankie didn't hope that the agent of the <b>GUITARIST</b> would show up. ,111,NA,31872,acceptability,4,hope,,
167,condition1,NA,embed,0,embed_focus,Hanako said: John didn't whisper that Mary met with the <b>LAWYER</b>.,1,"Who Mary met with, according to John.",17709,backgroundedness,5,whisper,,
167,condition1,NA,embed,0,embed_focus,Hanako said: Ben didn't say that Laura ordered <b>PIZZA</b>.,307,"What Laura ordered, according to Ben.",13211,backgroundedness,6,say,,
167,condition1,0.1,NA,1,filler_bad,Hanakko said: Larry didn't believe that Karl and <b>NICK</b> cooked dinner.,109,NA,39167,acceptability,7,believe,,
167,condition1,0.96,NA,1,filler_good,Hanako said: Ollie didn't think that Doug would invite the <b>MAYOR</b>.,101,NA,15799,acceptability,8,think,,
167,condition1,NA,embed,1,embed_focus,Hanako said: Tom didn't say that Sarah admired her <b>FRIEND</b>.,311,"Who Sarah admired, according to Tom.",14376,backgroundedness,9,say,,
167,condition1,0.93,NA,1,embed_focus,Hanako said: Emma didn't stammer that Kevin lost the <b>KEYS</b>.,2,NA,27921,acceptability,10,stammer,,
167,condition1,NA,verb,1,verb_focus,Hanako said: Igor didn't <b>SHRIEK</b> that Penny won the lottery.,11,The way Igor communicated that Penny won the lottery.,36838,backgroundedness,11,shriek,,
167,condition1,0.95,NA,1,verb_focus,Hanako said: Emily didn't <b>SAY</b> that Paul drafted the letter.,302,NA,17819,acceptability,12,say,,
167,condition1,0.85,NA,2,filler_good,Hanako said: Grace didn't suggest that Karen wrote a <b>BOOK</b>.,102,NA,28742,acceptability,13,suggest,,
167,condition1,0.12,NA,2,filler_bad,Hanako said: Jessie didn't guess that the assistant to the <b>DIRECTOR</b> would give the presentation.,112,NA,49560,acceptability,14,guess,,
167,condition1,NA,embed,2,embed_focus,Hanako said: Ashley didn't groan that Hasan talked to the <b>DETECTIVES</b>.,8,"Who Hasan talked to, according to Ashley.",16904,backgroundedness,15,groan,,
167,condition1,NA,embed,2,embed_focus,Hanako said: Tim didn't say that Jason drank the <b>BEER</b>.,304,"What Jason drank, according to Tim.",11692,backgroundedness,16,say,,
167,condition1,0.53,NA,2,verb_focus,Hanako said: Sally didn't <b>SAY</b> that Tony would visit George.,303,NA,44850,acceptability,17,say,,
167,condition1,0.4,NA,2,verb_focus,Hanako said: Amy didn't <b>SCREAM</b> that Charlie saw the robber.,6,NA,32878,acceptability,18,scream,,
167,condition1,NA,embed,3,embed_focus,Hanako said: Kate didn't say that Zack broke the <b>PLATES</b>.,306,"What Zack broke, according to Kate.",10318,backgroundedness,19,say,,
167,condition1,NA,embed,3,embed_focus,Hanako said: Howard didn't mumble that Alex bought a <b>BIRTHDAY CAKE</b>.,3,"What Alex bought, according to Howard.",16240,backgroundedness,20,mumble,,
167,condition1,0.05,NA,3,filler_bad,Hanako said: Tim didn't suspect that Liz and <b>JASON</b> drank the beer. ,108,NA,22602,acceptability,21,suspect,,
167,condition1,0.88,NA,3,verb_focus,Hanako said: Fatima didn't <b>MURMUR</b> that Omar had dinner with his manager.,10,NA,23180,acceptability,22,murmur,,
167,condition1,0.83,NA,3,filler_good,Hanako said: Jean didn't believe that Grant adopted a <b>KITTEN</b>.,103,NA,25290,acceptability,23,believe,,
167,condition1,0.77,NA,3,verb_focus,Hanako said: Danny didn't <b>SAY</b> that Jennifer got a cat.,308,NA,26136,acceptability,24,say,,
167,condition1,0.38,NA,4,filler_good,Hanako said: <b>MATTHEW</b> didn't hope that Dana brought a gift.,104,NA,25306,acceptability,25,hope,,
167,condition1,0.15,NA,4,filler_bad,Hanako said: Helen didn't think that Rob and <b>MARC</b> cut the bread. ,107,NA,18249,acceptability,26,think,,
167,condition1,0.96,NA,4,verb_focus,Hanako said: Noah didn't <b>SAY</b> that Sharon wanted a dog.,312,NA,13984,acceptability,27,say,,
167,condition1,NA,verb,4,verb_focus,Hanako said: Laura didn't <b>MUTTER</b> that Brandon broke his laptop.,4,The way Laura communicated that Brandon broke his laptop.,35265,backgroundedness,28,mutter,,
167,condition1,NA,embed,4,embed_focus,Hanako said: Nancy didn't say that Julian ate the <b>CUPCAKE</b>.,309,"What Julian ate, according to Nancy.",11945,backgroundedness,29,say,,
167,condition1,0.86,NA,4,embed_focus,Hanako said: Yash didn't whine that Ming forgot her <b>PHONE</b>.,9,NA,20814,acceptability,30,whine,,
167,condition1,0.94,NA,5,filler_good,Hanako said: <b>JULIE</b> didn't guess that Charlie received a message.,105,NA,45954,acceptability,31,guess,,
167,condition1,0.05,NA,5,filler_bad,Hanako said: Rui didn't imply that <b>CAROL</b>'s brother signed the contract.,110,NA,17626,acceptability,32,imply,,
167,condition1,NA,verb,5,verb_focus,Hanako said: Bill didn't <b>SHOUT</b> that Dan knew the professor.,5,The way Bill communicated that Dan knew the professor.,19004,backgroundedness,33,shout,,
167,condition1,0.95,NA,5,embed_focus,Hanako said: Charlie didn't say that Maddie would call her <b>ROOMMATE</b>.,305,NA,17576,acceptability,34,say,,
167,condition1,NA,verb,5,verb_focus,Hanako said: Hannah didn't <b>SAY</b> that George emailed the students.,301,The way Hannah communicated that George emailed the students.,42542,backgroundedness,35,say,,
167,condition1,0.66,NA,5,embed_focus,Hanako said: Chandler didn't moan that Tia brought her <b>PARENTS</b>.,12,NA,31324,acceptability,36,moan,,
162,condition1,0.96,NA,practice,practice_acceptability_good_1,Hanako said: Fiona didn't buy <b>PINEAPPLES</b>.,201,,,acceptability,0,NA,0,
162,condition1,NA,correct,practice,practice_bg_good_2,Hanako said: Vera didn't <b>DRIVE</b> to Michigan.,202,How Vera travelled to Michigan.,,backgroundedness,0,NA,,
162,condition1,0.1,NA,practice,practice_accpetability_bad_2,Hanako said: Prisha doesn't speak <b>KOREAN</b>.,204,,,acceptability,0,NA,0,
162,condition1,NA,correct,practice,practice_bg_bad_1,Hanako said: Hank didn't buy the <b>RED</b> car.,203,Which car Hank bought.,,backgroundedness,0,NA,,
162,condition1,0.13,NA,0,verb_focus,Hanako said: Laura didn't <b>MUTTER</b> that Brandon broke his laptop.,4,NA,9544,acceptability,1,mutter,,
162,condition1,NA,embed,0,embed_focus,Hanako said: Tom didn't say that Sarah admired her <b>FRIEND</b>.,311,"Who Sarah admired, according to Tom.",24268,backgroundedness,2,say,,
162,condition1,0.32,NA,0,verb_focus,Hanako said: Sally didn't <b>SAY</b> that Tony would visit George.,303,NA,11084,acceptability,3,say,,
162,condition1,NA,embed,0,embed_focus,Hanako said: Emma didn't stammer that Kevin lost the <b>KEYS</b>.,2,"What Kevin lost, according to Emma.",9202,backgroundedness,4,stammer,,
162,condition1,0.9,NA,0,filler_bad,Hanako said: Jessie didn't guess that the assistant to the <b>DIRECTOR</b> would give the presentation.,112,NA,15662,acceptability,5,guess,,
162,condition1,0.86,NA,0,filler_good,Hanako said: Ollie didn't think that Doug would invite the <b>MAYOR</b>.,101,NA,9153,acceptability,6,think,,
162,condition1,0.28,NA,1,verb_focus,Hanako said: Kate didn't <b>SAY</b> that Zack broke the plates.,306,NA,8996,acceptability,7,say,,
162,condition1,0.09,NA,1,filler_bad,Hanako said: Tim didn't suspect that Liz and <b>JASON</b> drank the beer. ,108,NA,19623,acceptability,8,suspect,,
162,condition1,NA,verb,1,verb_focus,Hanako said: Chandler didn't <b>MOAN</b> that Tia brought her parents.,12,The way Chandler communicated that Tia brought her parents.,17798,backgroundedness,9,moan,,
162,condition1,0.89,NA,1,filler_good,Hanako said: Jean didn't believe that Grant adopted a <b>KITTEN</b>.,103,NA,12443,acceptability,10,believe,,
162,condition1,0.93,NA,1,embed_focus,Hanako said: Jake didn't yell that Yumi found the <b>WALLET</b>.,7,NA,7667,acceptability,11,yell,,
162,condition1,NA,embed,1,embed_focus,Hanako said: Charlie didn't say that Maddie would call her <b>ROOMMATE</b>.,305,"Who Maddie would call, according to Charlie.",16206,backgroundedness,12,say,,
162,condition1,0.29,NA,2,verb_focus,Hanako said: Danny didn't <b>SAY</b> that Jennifer got a cat.,308,NA,9879,acceptability,13,say,,
162,condition1,0.29,NA,2,filler_bad,Hanako said: Helen didn't think that Rob and <b>MARC</b> cut the bread. ,107,NA,10145,acceptability,14,think,,
162,condition1,NA,embed,2,embed_focus,Hanako said: Yash didn't whine that Ming forgot her <b>PHONE</b>.,9,"What Ming forgot, according to Yash.",9615,backgroundedness,15,whine,,
162,condition1,0.82,NA,2,filler_good,Hanako said: <b>MATTHEW</b> didn't hope that Dana brought a gift.,104,NA,16358,acceptability,16,hope,,
162,condition1,0.97,NA,2,embed_focus,Hanako said: Nancy didn't say that Julian ate the <b>CUPCAKE</b>.,309,NA,6562,acceptability,17,say,,
162,condition1,NA,verb,2,verb_focus,Hanako said: Fatima didn't <b>MURMUR</b> that Omar had dinner with his manager.,10,The way Fatima communicated that Omar had dinner with his manager.,11583,backgroundedness,18,murmur,,
162,condition1,0.28,NA,3,verb_focus,Hanako said: Jessie didn't <b>SAY</b> that Michelle borrowed the computer.,310,NA,13647,acceptability,19,say,,
162,condition1,0.99,NA,3,filler_good,Hanako said: <b>JULIE</b> didn't guess that Charlie received a message.,105,NA,6087,acceptability,20,guess,,
162,condition1,0.67,NA,3,filler_bad,Hanako said: Rui didn't imply that <b>CAROL</b>'s brother signed the contract.,110,NA,11351,acceptability,21,imply,,
162,condition1,NA,embed,3,embed_focus,Hanako said: Emily didn't say that Paul drafted the <b>LETTER</b>.,302,"What Paul drafted, according to Emily.",8235,backgroundedness,22,say,,
162,condition1,NA,verb,3,verb_focus,Hanako said: Amy didn't <b>SCREAM</b> that Charlie saw the robber.,6,The way Amy communicated that Charlie saw the robber.,7316,backgroundedness,23,scream,,
162,condition1,0.83,NA,3,embed_focus,Hanako said: Ashley didn't groan that Hasan talked to the <b>DETECTIVES</b>.,8,NA,13340,acceptability,24,groan,,
162,condition1,NA,verb,4,verb_focus,Hanako said: Tim didn't <b>SAY</b> that Jason drank the beer.,304,The way Tim communicated that Jason drank the beer.,10451,backgroundedness,25,say,,
162,condition1,0.96,NA,4,filler_good,Hanako said: <b>JESS</b> didn't reveal that Todd went out with Betty.,106,NA,9137,acceptability,26,reveal,,
162,condition1,0.15,NA,4,verb_focus,Hanako said: Igor didn't <b>SHRIEK</b> that Penny won the lottery.,11,NA,7918,acceptability,27,shriek,,
162,condition1,0.97,NA,4,embed_focus,Hanako said: Noah didn't say that Sharon wanted a <b>DOG</b>.,312,NA,6051,acceptability,28,say,,
162,condition1,0.57,NA,4,filler_bad,Hanakko said: Larry didn't believe that Karl and <b>NICK</b> cooked dinner.,109,NA,13809,acceptability,29,believe,,
162,condition1,NA,embed,4,embed_focus,Hanako said: Bill didn't shout that Dan knew the <b>PROFESSOR</b>.,5,"Who Dan knew, according to Bill.",6877,backgroundedness,30,shout,,
162,condition1,0.99,NA,5,filler_good,Hanako said: Grace didn't suggest that Karen wrote a <b>BOOK</b>.,102,NA,7359,acceptability,31,suggest,,
162,condition1,0.99,NA,5,embed_focus,Hanako said: Ben didn't say that Laura ordered <b>PIZZA</b>.,307,NA,17061,acceptability,32,say,,
162,condition1,NA,verb,5,verb_focus,Hanako said: Hannah didn't <b>SAY</b> that George emailed the students.,301,The way Hannah communicated that George emailed the students.,4444,backgroundedness,33,say,,
162,condition1,0.8,NA,5,filler_bad,Hanako said: Frankie didn't hope that the agent of the <b>GUITARIST</b> would show up. ,111,NA,11105,acceptability,34,hope,,
162,condition1,NA,verb,5,verb_focus,Hanako said: Howard didn't <b>MUMBLE</b> that Alex bought a birthday cake.,3,The way Howard communicated that Alex bought a birthday cake.,8125,backgroundedness,35,mumble,,
162,condition1,0.98,NA,5,embed_focus,Hanako said: John didn't whisper that Mary met with the <b>LAWYER</b>.,1,NA,7332,acceptability,36,whisper,,
172,condition1,0.99,NA,practice,practice_acceptability_good_1,Hanako said: Fiona didn't buy <b>PINEAPPLES</b>.,201,,,acceptability,0,NA,0,
172,condition1,NA,correct,practice,practice_bg_good_2,Hanako said: Vera didn't <b>DRIVE</b> to Michigan.,202,How Vera travelled to Michigan.,,backgroundedness,0,NA,,
172,condition1,0.21,NA,practice,practice_accpetability_bad_2,Hanako said: Prisha doesn't speak <b>KOREAN</b>.,204,,,acceptability,0,NA,0,
172,condition1,NA,correct,practice,practice_bg_bad_1,Hanako said: Hank didn't buy the <b>RED</b> car.,203,Which car Hank bought.,,backgroundedness,0,NA,,
172,condition1,NA,verb,0,verb_focus,Hanako said: Laura didn't <b>MUTTER</b> that Brandon broke his laptop.,4,The way Laura communicated that Brandon broke his laptop.,15289,backgroundedness,1,mutter,,
172,condition1,0.67,NA,0,embed_focus,Hanako said: John didn't whisper that Mary met with the <b>LAWYER</b>.,1,NA,11102,acceptability,2,whisper,,
172,condition1,0.81,NA,0,filler_good,Hanako said: <b>JULIE</b> didn't guess that Charlie received a message.,105,NA,4999,acceptability,3,guess,,
172,condition1,0.3,NA,0,filler_bad,Hanako said: Jessie didn't guess that the assistant to the <b>DIRECTOR</b> would give the presentation.,112,NA,14662,acceptability,4,guess,,
172,condition1,0.7,NA,0,embed_focus,Hanako said: Kate didn't say that Zack broke the <b>PLATES</b>.,306,NA,6124,acceptability,5,say,,
172,condition1,NA,verb,0,verb_focus,Hanako said: Noah didn't <b>SAY</b> that Sharon wanted a dog.,312,The way Noah communicated that Sharon wanted a dog.,12456,backgroundedness,6,say,,
172,condition1,0.71,NA,1,verb_focus,Hanako said: Tim didn't <b>SAY</b> that Jason drank the beer.,304,NA,5453,acceptability,7,say,,
172,condition1,0.77,NA,1,embed_focus,Hanako said: Chandler didn't moan that Tia brought her <b>PARENTS</b>.,12,NA,6253,acceptability,8,moan,,
172,condition1,0.22,NA,1,filler_bad,Hanakko said: Larry didn't believe that Karl and <b>NICK</b> cooked dinner.,109,NA,16965,acceptability,9,believe,,
172,condition1,NA,verb,1,verb_focus,Hanako said: Howard didn't <b>MUMBLE</b> that Alex bought a birthday cake.,3,The way Howard communicated that Alex bought a birthday cake.,6296,backgroundedness,10,mumble,,
172,condition1,NA,embed,1,embed_focus,Hanako said: Nancy didn't say that Julian ate the <b>CUPCAKE</b>.,309,"What Julian ate, according to Nancy.",7442,backgroundedness,11,say,,
172,condition1,1,NA,1,filler_good,Hanako said: <b>MATTHEW</b> didn't hope that Dana brought a gift.,104,NA,5298,acceptability,12,hope,,
172,condition1,0.7,NA,2,filler_good,Hanako said: Ollie didn't think that Doug would invite the <b>MAYOR</b>.,101,NA,4546,acceptability,13,think,,
172,condition1,NA,verb,2,verb_focus,Hanako said: Sally didn't <b>SAY</b> that Tony would visit George.,303,The way Sally communicated that Tony would visit George.,7095,backgroundedness,14,say,,
172,condition1,0.72,NA,2,embed_focus,Hanako said: Bill didn't shout that Dan knew the <b>PROFESSOR</b>.,5,NA,6082,acceptability,15,shout,,
172,condition1,0.62,NA,2,verb_focus,Hanako said: Jake didn't <b>YELL</b> that Yumi found the wallet.,7,NA,7180,acceptability,16,yell,,
172,condition1,0.21,NA,2,filler_bad,Hanako said: Rui didn't imply that <b>CAROL</b>'s brother signed the contract.,110,NA,7044,acceptability,17,imply,,
172,condition1,NA,embed,2,embed_focus,Hanako said: Danny didn't say that Jennifer got a <b>CAT</b>.,308,"What Jennifer got, according to Danny.",3550,backgroundedness,18,say,,
172,condition1,0.25,NA,3,filler_bad,Hanako said: Frankie didn't hope that the agent of the <b>GUITARIST</b> would show up. ,111,NA,8698,acceptability,19,hope,,
172,condition1,NA,embed,3,embed_focus,Hanako said: Amy didn't scream that Charlie saw the <b>ROBBER</b>.,6,"Who Charlie saw, according to Amy.",11512,backgroundedness,20,scream,,
172,condition1,NA,verb,3,verb_focus,Hanako said: Fatima didn't <b>MURMUR</b> that Omar had dinner with his manager.,10,The way Fatima communicated that Omar had dinner with his manager.,3440,backgroundedness,21,murmur,,
172,condition1,0.75,NA,3,filler_good,Hanako said: Grace didn't suggest that Karen wrote a <b>BOOK</b>.,102,NA,27297,acceptability,22,suggest,,
172,condition1,0.22,NA,3,verb_focus,Hanako said: Emily didn't <b>SAY</b> that Paul drafted the letter.,302,NA,7198,acceptability,23,say,,
172,condition1,0.76,NA,3,embed_focus,Hanako said: Tom didn't say that Sarah admired her <b>FRIEND</b>.,311,NA,3622,acceptability,24,say,,
172,condition1,0.8,NA,4,filler_good,Hanako said: Jean didn't believe that Grant adopted a <b>KITTEN</b>.,103,NA,4449,acceptability,25,believe,,
172,condition1,NA,embed,4,embed_focus,Hanako said: Hannah didn't say that George emailed the <b>STUDENTS</b>.,301,"Who George emailed, according to Hannah.",5046,backgroundedness,26,say,,
172,condition1,0.14,NA,4,verb_focus,Hanako said: Emma didn't <b>STAMMER</b> that Kevin lost the keys.,2,NA,3341,acceptability,27,stammer,,
172,condition1,NA,embed,4,embed_focus,Hanako said: Igor didn't shriek that Penny won the <b>LOTTERY</b>.,11,"What Penny won, according to Igor.",7487,backgroundedness,28,shriek,,
172,condition1,0.2,NA,4,filler_bad,Hanako said: Tim didn't suspect that Liz and <b>JASON</b> drank the beer. ,108,NA,4798,acceptability,29,suspect,,
172,condition1,0.2,NA,4,verb_focus,Hanako said: Ben didn't <b>SAY</b> that Laura ordered pizza.,307,NA,4235,acceptability,30,say,,
172,condition1,NA,embed,5,embed_focus,Hanako said: Yash didn't whine that Ming forgot her <b>PHONE</b>.,9,"What Ming forgot, according to Yash.",13714,backgroundedness,31,whine,,
172,condition1,NA,verb,5,verb_focus,Hanako said: Ashley didn't <b>GROAN</b> that Hasan talked to the detectives.,8,The way Ashley communicated that Hasan talked to the detectives.,8487,backgroundedness,32,groan,,
172,condition1,0.12,NA,5,filler_bad,Hanako said: Helen didn't think that Rob and <b>MARC</b> cut the bread. ,107,NA,3900,acceptability,33,think,,
172,condition1,0.81,NA,5,filler_good,Hanako said: <b>JESS</b> didn't reveal that Todd went out with Betty.,106,NA,3399,acceptability,34,reveal,,
172,condition1,0.78,NA,5,embed_focus,Hanako said: Jessie didn't say that Michelle borrowed the <b>COMPUTER</b>.,310,NA,4590,acceptability,35,say,,
172,condition1,0.24,NA,5,verb_focus,Hanako said: Charlie didn't <b>SAY</b> that Maddie would call her roommate.,305,NA,3870,acceptability,36,say,,
219,condition1,0.99,NA,practice,practice_acceptability_good_1,Hanako said: Fiona didn't buy <b>PINEAPPLES</b>.,201,,,acceptability,0,NA,0,
219,condition1,NA,correct,practice,practice_bg_good_2,Hanako said: Vera didn't <b>DRIVE</b> to Michigan.,202,How Vera travelled to Michigan.,,backgroundedness,0,NA,,
219,condition1,0.02,NA,practice,practice_accpetability_bad_2,Hanako said: Prisha doesn't speak <b>KOREAN</b>.,204,,,acceptability,0,NA,0,
219,condition1,NA,correct,practice,practice_bg_bad_1,Hanako said: Hank didn't buy the <b>RED</b> car.,203,Which car Hank bought.,,backgroundedness,0,NA,,
219,condition1,NA,verb,0,verb_focus,Hanako said: Laura didn't <b>MUTTER</b> that Brandon broke his laptop.,4,The way Laura communicated that Brandon broke his laptop.,24617,backgroundedness,1,mutter,,
219,condition1,0.35,NA,0,verb_focus,Hanako said: Tom didn't <b>SAY</b> that Sarah admired her friend.,311,NA,15200,acceptability,2,say,,
219,condition1,0.67,NA,0,filler_good,Hanako said: <b>JULIE</b> didn't guess that Charlie received a message.,105,NA,9485,acceptability,3,guess,,
219,condition1,NA,embed,0,embed_focus,Hanako said: Fatima didn't murmur that Omar had dinner with his <b>MANAGER</b>.,10,"Who Omar had dinner with, according to Fatima.",24735,backgroundedness,4,murmur,,
219,condition1,0.34,NA,0,embed_focus,Hanako said: Nancy didn't say that Julian ate the <b>CUPCAKE</b>.,309,NA,18385,acceptability,5,say,,
219,condition1,0.03,NA,0,filler_bad,Hanako said: Tim didn't suspect that Liz and <b>JASON</b> drank the beer. ,108,NA,17551,acceptability,6,suspect,,
219,condition1,NA,embed,1,verb_focus,Hanako said: Sally didn't <b>SAY</b> that Tony would visit George.,303,"Who Tony would visit, according to Sally.",16369,backgroundedness,7,say,,
219,condition1,0.17,NA,1,verb_focus,Hanako said: John didn't <b>WHISPER</b> that Mary met with the lawyer.,1,NA,13433,acceptability,8,whisper,,
219,condition1,0.66,NA,1,filler_good,Hanako said: Ollie didn't think that Doug would invite the <b>MAYOR</b>.,101,NA,16034,acceptability,9,think,,
219,condition1,0.6,NA,1,embed_focus,Hanako said: Hannah didn't say that George emailed the <b>STUDENTS</b>.,301,NA,16451,acceptability,10,say,,
219,condition1,NA,embed,1,embed_focus,Hanako said: Jake didn't yell that Yumi found the <b>WALLET</b>.,7,"What Yumi found, according to Jake.",39754,backgroundedness,11,yell,,
219,condition1,0.03,NA,1,filler_bad,Hanakko said: Larry didn't believe that Karl and <b>NICK</b> cooked dinner.,109,NA,9299,acceptability,12,believe,,
219,condition1,0.32,NA,2,filler_good,Hanako said: Jean didn't believe that Grant adopted a <b>KITTEN</b>.,103,NA,16885,acceptability,13,believe,,
219,condition1,0.01,NA,2,filler_bad,Hanako said: Rui didn't imply that <b>CAROL</b>'s brother signed the contract.,110,NA,8601,acceptability,14,imply,,
219,condition1,0.53,NA,2,embed_focus,Hanako said: Igor didn't shriek that Penny won the <b>LOTTERY</b>.,11,NA,19484,acceptability,15,shriek,,
219,condition1,NA,verb,2,verb_focus,Hanako said: Amy didn't <b>SCREAM</b> that Charlie saw the robber.,6,The way Amy communicated that Charlie saw the robber.,15035,backgroundedness,16,scream,,
219,condition1,0.69,NA,2,embed_focus,Hanako said: Ben didn't say that Laura ordered <b>PIZZA</b>.,307,NA,10634,acceptability,17,say,,
219,condition1,NA,embed,2,verb_focus,Hanako said: Charlie didn't <b>SAY</b> that Maddie would call her roommate.,305,"Who Maddie would call, according to Charlie.",19834,backgroundedness,18,say,,
219,condition1,0.08,NA,3,verb_focus,Hanako said: Ashley didn't <b>GROAN</b> that Hasan talked to the detectives.,8,NA,11334,acceptability,19,groan,,
219,condition1,NA,verb,3,embed_focus,Hanako said: Chandler didn't moan that Tia brought her <b>PARENTS</b>.,12,The way Chandler communicated that Tia brought her parents.,13751,backgroundedness,20,moan,,
219,condition1,0.99,NA,3,filler_good,Hanako said: <b>JESS</b> didn't reveal that Todd went out with Betty.,106,NA,11334,acceptability,21,reveal,,
219,condition1,NA,embed,3,embed_focus,Hanako said: Noah didn't say that Sharon wanted a <b>DOG</b>.,312,"What Sharon wanted, according to Noah.",13017,backgroundedness,22,say,,
219,condition1,0,NA,3,filler_bad,Hanako said: Helen didn't think that Rob and <b>MARC</b> cut the bread. ,107,NA,7634,acceptability,23,think,,
219,condition1,0.24,NA,3,verb_focus,Hanako said: Tim didn't <b>SAY</b> that Jason drank the beer.,304,NA,14884,acceptability,24,say,,
219,condition1,NA,embed,4,verb_focus,Hanako said: Bill didn't <b>SHOUT</b> that Dan knew the professor.,5,"Who Dan knew, according to Bill.",22419,backgroundedness,25,shout,,
219,condition1,0.01,NA,4,embed_focus,Hanako said: Yash didn't whine that Ming forgot her <b>PHONE</b>.,9,NA,7432,acceptability,26,whine,,
219,condition1,0.98,NA,4,embed_focus,Hanako said: Jessie didn't say that Michelle borrowed the <b>COMPUTER</b>.,310,NA,10168,acceptability,27,say,,
219,condition1,0.01,NA,4,filler_bad,Hanako said: Jessie didn't guess that the assistant to the <b>DIRECTOR</b> would give the presentation.,112,NA,9752,acceptability,28,guess,,
219,condition1,0.99,NA,4,filler_good,Hanako said: Grace didn't suggest that Karen wrote a <b>BOOK</b>.,102,NA,9166,acceptability,29,suggest,,
219,condition1,NA,verb,4,verb_focus,Hanako said: Kate didn't <b>SAY</b> that Zack broke the plates.,306,The way Kate communicated that Zack broke the plates.,18519,backgroundedness,30,say,,
219,condition1,0.01,NA,5,filler_bad,Hanako said: Frankie didn't hope that the agent of the <b>GUITARIST</b> would show up. ,111,NA,10167,acceptability,31,hope,,
219,condition1,0.07,NA,5,embed_focus,Hanako said: Emma didn't stammer that Kevin lost the <b>KEYS</b>.,2,NA,7700,acceptability,32,stammer,,
219,condition1,0.47,NA,5,verb_focus,Hanako said: Emily didn't <b>SAY</b> that Paul drafted the letter.,302,NA,14284,acceptability,33,say,,
219,condition1,NA,verb,5,embed_focus,Hanako said: Danny didn't say that Jennifer got a <b>CAT</b>.,308,The way Danny communicated that Jennifer got a cat.,13168,backgroundedness,34,say,,
219,condition1,0.86,NA,5,filler_good,Hanako said: <b>MATTHEW</b> didn't hope that Dana brought a gift.,104,NA,10267,acceptability,35,hope,,
219,condition1,NA,verb,5,verb_focus,Hanako said: Howard didn't <b>MUMBLE</b> that Alex bought a birthday cake.,3,The way Howard communicated that Alex bought a birthday cake.,12352,backgroundedness,36,mumble,,
233,condition1,0.97,NA,practice,practice_acceptability_good_1,Hanako said: Fiona didn't buy <b>PINEAPPLES</b>.,201,,,acceptability,0,NA,0,
233,condition1,NA,correct,practice,practice_bg_good_2,Hanako said: Vera didn't <b>DRIVE</b> to Michigan.,202,How Vera travelled to Michigan.,,backgroundedness,0,NA,,
233,condition1,0.14,NA,practice,practice_accpetability_bad_2,Hanako said: Prisha doesn't speak <b>KOREAN</b>.,204,,,acceptability,0,NA,0,
233,condition1,NA,correct,practice,practice_bg_bad_1,Hanako said: Hank didn't buy the <b>RED</b> car.,203,Which car Hank bought.,,backgroundedness,0,NA,,
233,condition1,NA,embed,0,embed_focus,Hanako said: Sally didn't say that Tony would visit <b>GEORGE</b>.,303,"Who Tony would visit, according to Sally.",11307,backgroundedness,1,say,,
233,condition1,0.34,NA,0,verb_focus,Hanako said: Howard didn't <b>MUMBLE</b> that Alex bought a birthday cake.,3,NA,14170,acceptability,2,mumble,,
233,condition1,0.91,NA,0,embed_focus,Hanako said: Chandler didn't moan that Tia brought her <b>PARENTS</b>.,12,NA,7008,acceptability,3,moan,,
233,condition1,0.57,NA,0,filler_bad,Hanako said: Frankie didn't hope that the agent of the <b>GUITARIST</b> would show up. ,111,NA,16002,acceptability,4,hope,,
233,condition1,1,NA,0,filler_good,Hanako said: <b>MATTHEW</b> didn't hope that Dana brought a gift.,104,NA,7105,acceptability,5,hope,,
233,condition1,NA,verb,0,verb_focus,Hanako said: Jessie didn't <b>SAY</b> that Michelle borrowed the computer.,310,The way Jessie communicated that Michelle borrowed the computer.,14951,backgroundedness,6,say,,
233,condition1,0.36,NA,1,verb_focus,Hanako said: Emma didn't <b>STAMMER</b> that Kevin lost the keys.,2,NA,7459,acceptability,7,stammer,,
233,condition1,NA,verb,1,verb_focus,Hanako said: Ben didn't <b>SAY</b> that Laura ordered pizza.,307,The way Ben communicated that Laura ordered pizza.,13412,backgroundedness,8,say,,
233,condition1,0.89,NA,1,filler_bad,Hanako said: Jessie didn't guess that the assistant to the <b>DIRECTOR</b> would give the presentation.,112,NA,10938,acceptability,9,guess,,
233,condition1,0.97,NA,1,filler_good,Hanako said: Ollie didn't think that Doug would invite the <b>MAYOR</b>.,101,NA,6944,acceptability,10,think,,
233,condition1,0.94,NA,1,embed_focus,Hanako said: Kate didn't say that Zack broke the <b>PLATES</b>.,306,NA,12933,acceptability,11,say,,
233,condition1,NA,embed,1,embed_focus,Hanako said: Fatima didn't murmur that Omar had dinner with his <b>MANAGER</b>.,10,"Who Omar had dinner with, according to Fatima.",11219,backgroundedness,12,murmur,,
233,condition1,NA,verb,2,verb_focus,Hanako said: John didn't <b>WHISPER</b> that Mary met with the lawyer.,1,The way John communicated that Mary met with the lawyer.,8265,backgroundedness,13,whisper,,
233,condition1,NA,embed,2,embed_focus,Hanako said: Igor didn't shriek that Penny won the <b>LOTTERY</b>.,11,"What Penny won, according to Igor.",9707,backgroundedness,14,shriek,,
233,condition1,0.31,NA,2,filler_bad,Hanako said: Rui didn't imply that <b>CAROL</b>'s brother signed the contract.,110,NA,12252,acceptability,15,imply,,
233,condition1,0.93,NA,2,embed_focus,Hanako said: Charlie didn't say that Maddie would call her <b>ROOMMATE</b>.,305,NA,10602,acceptability,16,say,,
233,condition1,0.86,NA,2,filler_good,Hanako said: Jean didn't believe that Grant adopted a <b>KITTEN</b>.,103,NA,20177,acceptability,17,believe,,
233,condition1,0.55,NA,2,verb_focus,Hanako said: Tim didn't <b>SAY</b> that Jason drank the beer.,304,NA,7431,acceptability,18,say,,
233,condition1,NA,embed,3,embed_focus,Hanako said: Jake didn't yell that Yumi found the <b>WALLET</b>.,7,"What Yumi found, according to Jake.",6588,backgroundedness,19,yell,,
233,condition1,NA,verb,3,verb_focus,Hanako said: Laura didn't <b>MUTTER</b> that Brandon broke his laptop.,4,The way Laura communicated that Brandon broke his laptop.,9087,backgroundedness,20,mutter,,
233,condition1,0.29,NA,3,filler_bad,Hanako said: Tim didn't suspect that Liz and <b>JASON</b> drank the beer. ,108,NA,9035,acceptability,21,suspect,,
233,condition1,0.9,NA,3,embed_focus,Hanako said: Noah didn't say that Sharon wanted a <b>DOG</b>.,312,NA,4840,acceptability,22,say,,
233,condition1,0.88,NA,3,filler_good,Hanako said: Grace didn't suggest that Karen wrote a <b>BOOK</b>.,102,NA,4972,acceptability,23,suggest,,
233,condition1,0.23,NA,3,verb_focus,Hanako said: Emily didn't <b>SAY</b> that Paul drafted the letter.,302,NA,9087,acceptability,24,say,,
233,condition1,NA,verb,4,verb_focus,Hanako said: Ashley didn't <b>GROAN</b> that Hasan talked to the detectives.,8,The way Ashley communicated that Hasan talked to the detectives.,7315,backgroundedness,25,groan,,
233,condition1,0.79,NA,4,embed_focus,Hanako said: Bill didn't shout that Dan knew the <b>PROFESSOR</b>.,5,NA,7581,acceptability,26,shout,,
233,condition1,0.92,NA,4,embed_focus,Hanako said: Danny didn't say that Jennifer got a <b>CAT</b>.,308,NA,7995,acceptability,27,say,,
233,condition1,0.3,NA,4,filler_bad,Hanako said: Helen didn't think that Rob and <b>MARC</b> cut the bread. ,107,NA,8903,acceptability,28,think,,
233,condition1,0.96,NA,4,filler_good,Hanako said: <b>JULIE</b> didn't guess that Charlie received a message.,105,NA,5598,acceptability,29,guess,,
233,condition1,NA,verb,4,verb_focus,Hanako said: Tom didn't <b>SAY</b> that Sarah admired her friend.,311,The way Tom communicated that Sarah admired her friend.,7026,backgroundedness,30,say,,
233,condition1,NA,embed,5,embed_focus,Hanako said: Nancy didn't say that Julian ate the <b>CUPCAKE</b>.,309,"What Julian ate, according to Nancy.",7745,backgroundedness,31,say,,
233,condition1,0.79,NA,5,verb_focus,Hanako said: Hannah didn't <b>SAY</b> that George emailed the students.,301,NA,9067,acceptability,32,say,,
233,condition1,NA,verb,5,verb_focus,Hanako said: Amy didn't <b>SCREAM</b> that Charlie saw the robber.,6,The way Amy communicated that Charlie saw the robber.,6368,backgroundedness,33,scream,,
233,condition1,0.99,NA,5,filler_good,Hanako said: <b>JESS</b> didn't reveal that Todd went out with Betty.,106,NA,9228,acceptability,34,reveal,,
233,condition1,0.77,NA,5,embed_focus,Hanako said: Yash didn't whine that Ming forgot her <b>PHONE</b>.,9,NA,6451,acceptability,35,whine,,
233,condition1,0.12,NA,5,filler_bad,Hanakko said: Larry didn't believe that Karl and <b>NICK</b> cooked dinner.,109,NA,8785,acceptability,36,believe,,
199,condition1,0.94,NA,practice,practice_acceptability_good_1,Hanako said: Fiona didn't buy <b>PINEAPPLES</b>.,201,,,acceptability,0,NA,0,
199,condition1,NA,correct,practice,practice_bg_good_2,Hanako said: Vera didn't <b>DRIVE</b> to Michigan.,202,How Vera travelled to Michigan.,,backgroundedness,0,NA,,
199,condition1,0.06,NA,practice,practice_accpetability_bad_2,Hanako said: Prisha doesn't speak <b>KOREAN</b>.,204,,,acceptability,0,NA,0,
199,condition1,NA,correct,practice,practice_bg_bad_1,Hanako said: Hank didn't buy the <b>RED</b> car.,203,Which car Hank bought.,,backgroundedness,0,NA,,
199,condition1,0.34,NA,0,verb_focus,Hanako said: Nancy didn't <b>SAY</b> that Julian ate the cupcake.,309,NA,17931,acceptability,1,say,,
199,condition1,NA,embed,0,embed_focus,Hanako said: Chandler didn't moan that Tia brought her <b>PARENTS</b>.,12,"Who Tia brought, according to Chandler.",13840,backgroundedness,2,moan,,
199,condition1,NA,verb,0,verb_focus,Hanako said: Yash didn't <b>WHINE</b> that Ming forgot her phone.,9,The way Yash communicated that Ming forgot her phone.,22304,backgroundedness,3,whine,,
199,condition1,0.87,NA,0,embed_focus,Hanako said: Emily didn't say that Paul drafted the <b>LETTER</b>.,302,NA,6455,acceptability,4,say,,
199,condition1,0.86,NA,0,filler_good,Hanako said: Grace didn't suggest that Karen wrote a <b>BOOK</b>.,102,NA,3805,acceptability,5,suggest,,
199,condition1,0.11,NA,0,filler_bad,Hanakko said: Larry didn't believe that Karl and <b>NICK</b> cooked dinner.,109,NA,11493,acceptability,6,believe,,
199,condition1,0.36,NA,1,verb_focus,Hanako said: Amy didn't <b>SCREAM</b> that Charlie saw the robber.,6,NA,12750,acceptability,7,scream,,
199,condition1,0.89,NA,1,filler_good,Hanako said: <b>JULIE</b> didn't guess that Charlie received a message.,105,NA,52664,acceptability,8,guess,,
199,condition1,0.86,NA,1,filler_bad,Hanako said: Frankie didn't hope that the agent of the <b>GUITARIST</b> would show up. ,111,NA,11868,acceptability,9,hope,,
199,condition1,0.34,NA,1,verb_focus,Hanako said: Ben didn't <b>SAY</b> that Laura ordered pizza.,307,NA,5887,acceptability,10,say,,
199,condition1,NA,embed,1,embed_focus,Hanako said: John didn't whisper that Mary met with the <b>LAWYER</b>.,1,"Who Mary met with, according to John.",14880,backgroundedness,11,whisper,,
199,condition1,NA,embed,1,embed_focus,Hanako said: Noah didn't say that Sharon wanted a <b>DOG</b>.,312,"What Sharon wanted, according to Noah.",6392,backgroundedness,12,say,,
199,condition1,0.88,NA,2,verb_focus,Hanako said: Igor didn't <b>SHRIEK</b> that Penny won the lottery.,11,NA,5183,acceptability,13,shriek,,
199,condition1,0.8,NA,2,embed_focus,Hanako said: Bill didn't shout that Dan knew the <b>PROFESSOR</b>.,5,NA,5248,acceptability,14,shout,,
199,condition1,NA,embed,2,embed_focus,Hanako said: Charlie didn't say that Maddie would call her <b>ROOMMATE</b>.,305,"Who Maddie would call, according to Charlie.",14277,backgroundedness,15,say,,
199,condition1,0.93,NA,2,filler_good,Hanako said: <b>JESS</b> didn't reveal that Todd went out with Betty.,106,NA,5167,acceptability,16,reveal,,
199,condition1,0.1,NA,2,filler_bad,Hanako said: Helen didn't think that Rob and <b>MARC</b> cut the bread. ,107,NA,8285,acceptability,17,think,,
199,condition1,NA,verb,2,verb_focus,Hanako said: Sally didn't <b>SAY</b> that Tony would visit George.,303,The way Sally communicated that Tony would visit George.,35696,backgroundedness,18,say,,
199,condition1,0.82,NA,3,verb_focus,Hanako said: Emma didn't <b>STAMMER</b> that Kevin lost the keys.,2,NA,7455,acceptability,19,stammer,,
199,condition1,0.82,NA,3,filler_bad,Hanako said: Rui didn't imply that <b>CAROL</b>'s brother signed the contract.,110,NA,8644,acceptability,20,imply,,
199,condition1,NA,verb,3,verb_focus,Hanako said: Tom didn't <b>SAY</b> that Sarah admired her friend.,311,The way Tom communicated that Sarah admired her friend.,10226,backgroundedness,21,say,,
199,condition1,0.81,NA,3,filler_good,Hanako said: Jean didn't believe that Grant adopted a <b>KITTEN</b>.,103,NA,8110,acceptability,22,believe,,
199,condition1,NA,embed,3,embed_focus,Hanako said: Tim didn't say that Jason drank the <b>BEER</b>.,304,"What Jason drank, according to Tim.",5719,backgroundedness,23,say,,
199,condition1,0.89,NA,3,embed_focus,Hanako said: Fatima didn't murmur that Omar had dinner with his <b>MANAGER</b>.,10,NA,7989,acceptability,24,murmur,,
199,condition1,0.95,NA,4,embed_focus,Hanako said: Jessie didn't say that Michelle borrowed the <b>COMPUTER</b>.,310,NA,5022,acceptability,25,say,,
199,condition1,0.9,NA,4,verb_focus,Hanako said: Kate didn't <b>SAY</b> that Zack broke the plates.,306,NA,5866,acceptability,26,say,,
199,condition1,NA,verb,4,verb_focus,Hanako said: Jake didn't <b>YELL</b> that Yumi found the wallet.,7,The way Jake communicated that Yumi found the wallet.,10982,backgroundedness,27,yell,,
199,condition1,0.9,NA,4,filler_good,Hanako said: <b>MATTHEW</b> didn't hope that Dana brought a gift.,104,NA,10767,acceptability,28,hope,,
199,condition1,0.09,NA,4,filler_bad,Hanako said: Tim didn't suspect that Liz and <b>JASON</b> drank the beer. ,108,NA,5351,acceptability,29,suspect,,
199,condition1,NA,embed,4,embed_focus,Hanako said: Ashley didn't groan that Hasan talked to the <b>DETECTIVES</b>.,8,"Who Hasan talked to, according to Ashley.",8010,backgroundedness,30,groan,,
199,condition1,NA,embed,5,embed_focus,Hanako said: Howard didn't mumble that Alex bought a <b>BIRTHDAY CAKE</b>.,3,"What Alex bought, according to Howard.",4739,backgroundedness,31,mumble,,
199,condition1,0.91,NA,5,verb_focus,Hanako said: Laura didn't <b>MUTTER</b> that Brandon broke his laptop.,4,NA,7370,acceptability,32,mutter,,
199,condition1,0.07,NA,5,filler_bad,Hanako said: Jessie didn't guess that the assistant to the <b>DIRECTOR</b> would give the presentation.,112,NA,11384,acceptability,33,guess,,
199,condition1,0.92,NA,5,verb_focus,Hanako said: Danny didn't <b>SAY</b> that Jennifer got a cat.,308,NA,7182,acceptability,34,say,,
199,condition1,0.9,NA,5,filler_good,Hanako said: Ollie didn't think that Doug would invite the <b>MAYOR</b>.,101,NA,3999,acceptability,35,think,,
199,condition1,NA,embed,5,embed_focus,Hanako said: Hannah didn't say that George emailed the <b>STUDENTS</b>.,301,"Who George emailed, according to Hannah.",8127,backgroundedness,36,say,,
247,condition1,1,NA,practice,practice_acceptability_good_1,Hanako said: Fiona didn't buy <b>PINEAPPLES</b>.,201,,,acceptability,0,NA,0,
247,condition1,NA,correct,practice,practice_bg_good_2,Hanako said: Vera didn't <b>DRIVE</b> to Michigan.,202,How Vera travelled to Michigan.,,backgroundedness,0,NA,,
247,condition1,0,NA,practice,practice_accpetability_bad_2,Hanako said: Prisha doesn't speak <b>KOREAN</b>.,204,,,acceptability,0,NA,0,
247,condition1,NA,correct,practice,practice_bg_bad_1,Hanako said: Hank didn't buy the <b>RED</b> car.,203,Which car Hank bought.,,backgroundedness,0,NA,,
247,condition1,0,NA,0,filler_bad,Hanakko said: Larry didn't believe that Karl and <b>NICK</b> cooked dinner.,109,NA,9741,acceptability,1,believe,,
247,condition1,NA,embed,0,embed_focus,Hanako said: Sally didn't say that Tony would visit <b>GEORGE</b>.,303,"Who Tony would visit, according to Sally.",9727,backgroundedness,2,say,,
247,condition1,0.72,NA,0,embed_focus,Hanako said: Laura didn't mutter that Brandon broke his <b>LAPTOP</b>.,4,NA,15703,acceptability,3,mutter,,
247,condition1,0.17,NA,0,verb_focus,Hanako said: Ashley didn't <b>GROAN</b> that Hasan talked to the detectives.,8,NA,8111,acceptability,4,groan,,
247,condition1,NA,embed,0,verb_focus,Hanako said: Noah didn't <b>SAY</b> that Sharon wanted a dog.,312,"What Sharon wanted, according to Noah.",6514,backgroundedness,5,say,,
247,condition1,1,NA,0,filler_good,Hanako said: Grace didn't suggest that Karen wrote a <b>BOOK</b>.,102,NA,5510,acceptability,6,suggest,,
247,condition1,1,NA,1,embed_focus,Hanako said: Howard didn't mumble that Alex bought a <b>BIRTHDAY CAKE</b>.,3,NA,6752,acceptability,7,mumble,,
247,condition1,1,NA,1,embed_focus,Hanako said: Nancy didn't say that Julian ate the <b>CUPCAKE</b>.,309,NA,4744,acceptability,8,say,,
247,condition1,1,NA,1,filler_bad,Hanako said: Tim didn't suspect that Liz and <b>JASON</b> drank the beer. ,108,NA,8047,acceptability,9,suspect,,
247,condition1,NA,embed,1,verb_focus,Hanako said: Danny didn't <b>SAY</b> that Jennifer got a cat.,308,"What Jennifer got, according to Danny.",13263,backgroundedness,10,say,,
247,condition1,NA,embed,1,verb_focus,Hanako said: Jake didn't <b>YELL</b> that Yumi found the wallet.,7,"What Yumi found, according to Jake.",22329,backgroundedness,11,yell,,
247,condition1,1,NA,1,filler_good,Hanako said: <b>MATTHEW</b> didn't hope that Dana brought a gift.,104,NA,8134,acceptability,12,hope,,
247,condition1,NA,embed,2,embed_focus,Hanako said: Ben didn't say that Laura ordered <b>PIZZA</b>.,307,"What Laura ordered, according to Ben.",6120,backgroundedness,13,say,,
247,condition1,1,NA,2,verb_focus,Hanako said: Jessie didn't <b>SAY</b> that Michelle borrowed the computer.,310,NA,6991,acceptability,14,say,,
247,condition1,1,NA,2,verb_focus,Hanako said: Igor didn't <b>SHRIEK</b> that Penny won the lottery.,11,NA,6239,acceptability,15,shriek,,
247,condition1,1,NA,2,filler_good,Hanako said: Jean didn't believe that Grant adopted a <b>KITTEN</b>.,103,NA,5703,acceptability,16,believe,,
247,condition1,NA,embed,2,embed_focus,Hanako said: Emma didn't stammer that Kevin lost the <b>KEYS</b>.,2,"What Kevin lost, according to Emma.",10511,backgroundedness,17,stammer,,
247,condition1,0,NA,2,filler_bad,Hanako said: Frankie didn't hope that the agent of the <b>GUITARIST</b> would show up. ,111,NA,8999,acceptability,18,hope,,
247,condition1,1,NA,3,verb_focus,Hanako said: Tim didn't <b>SAY</b> that Jason drank the beer.,304,NA,8665,acceptability,19,say,,
247,condition1,NA,embed,3,embed_focus,Hanako said: Charlie didn't say that Maddie would call her <b>ROOMMATE</b>.,305,"Who Maddie would call, according to Charlie.",6607,backgroundedness,20,say,,
247,condition1,NA,verb,3,verb_focus,Hanako said: Chandler didn't <b>MOAN</b> that Tia brought her parents.,12,The way Chandler communicated that Tia brought her parents.,19135,backgroundedness,21,moan,,
247,condition1,1,NA,3,embed_focus,Hanako said: Bill didn't shout that Dan knew the <b>PROFESSOR</b>.,5,NA,5687,acceptability,22,shout,,
247,condition1,1,NA,3,filler_good,Hanako said: Ollie didn't think that Doug would invite the <b>MAYOR</b>.,101,NA,5159,acceptability,23,think,,
247,condition1,0,NA,3,filler_bad,Hanako said: Rui didn't imply that <b>CAROL</b>'s brother signed the contract.,110,NA,10399,acceptability,24,imply,,
247,condition1,NA,embed,4,verb_focus,Hanako said: Hannah didn't <b>SAY</b> that George emailed the students.,301,"Who George emailed, according to Hannah.",14176,backgroundedness,25,say,,
247,condition1,NA,embed,4,verb_focus,Hanako said: Fatima didn't <b>MURMUR</b> that Omar had dinner with his manager.,10,"Who Omar had dinner with, according to Fatima.",5951,backgroundedness,26,murmur,,
247,condition1,0,NA,4,filler_bad,Hanako said: Jessie didn't guess that the assistant to the <b>DIRECTOR</b> would give the presentation.,112,NA,23837,acceptability,27,guess,,
247,condition1,1,NA,4,embed_focus,Hanako said: John didn't whisper that Mary met with the <b>LAWYER</b>.,1,NA,7168,acceptability,28,whisper,,
247,condition1,1,NA,4,embed_focus,Hanako said: Emily didn't say that Paul drafted the <b>LETTER</b>.,302,NA,5096,acceptability,29,say,,
247,condition1,1,NA,4,filler_good,Hanako said: <b>JESS</b> didn't reveal that Todd went out with Betty.,106,NA,4471,acceptability,30,reveal,,
247,condition1,NA,embed,5,embed_focus,Hanako said: Yash didn't whine that Ming forgot her <b>PHONE</b>.,9,"What Ming forgot, according to Yash.",9903,backgroundedness,31,whine,,
247,condition1,0,NA,5,filler_bad,Hanako said: Helen didn't think that Rob and <b>MARC</b> cut the bread. ,107,NA,22768,acceptability,32,think,,
247,condition1,0,NA,5,verb_focus,Hanako said: Amy didn't <b>SCREAM</b> that Charlie saw the robber.,6,NA,10422,acceptability,33,scream,,
247,condition1,NA,embed,5,verb_focus,Hanako said: Kate didn't <b>SAY</b> that Zack broke the plates.,306,"What Zack broke, according to Kate.",6728,backgroundedness,34,say,,
247,condition1,1,NA,5,filler_good,Hanako said: <b>JULIE</b> didn't guess that Charlie received a message.,105,NA,7167,acceptability,35,guess,,
247,condition1,1,NA,5,embed_focus,Hanako said: Tom didn't say that Sarah admired her <b>FRIEND</b>.,311,NA,10167,acceptability,36,say,,
193,condition1,0.9,NA,practice,practice_acceptability_good_1,Hanako said: Fiona didn't buy <b>PINEAPPLES</b>.,201,,,acceptability,0,NA,0,
193,condition1,NA,correct,practice,practice_bg_good_2,Hanako said: Vera didn't <b>DRIVE</b> to Michigan.,202,How Vera travelled to Michigan.,,backgroundedness,0,NA,,
193,condition1,0.09,NA,practice,practice_accpetability_bad_2,Hanako said: Prisha doesn't speak <b>KOREAN</b>.,204,,,acceptability,0,NA,0,
193,condition1,NA,correct,practice,practice_bg_bad_1,Hanako said: Hank didn't buy the <b>RED</b> car.,203,Which car Hank bought.,,backgroundedness,0,NA,,
193,condition1,NA,embed,0,embed_focus,Hanako said: Jessie didn't say that Michelle borrowed the <b>COMPUTER</b>.,310,"What Michelle borrowed, according to Jessie.",18754,backgroundedness,1,say,,
193,condition1,0.79,NA,0,filler_good,Hanako said: <b>JULIE</b> didn't guess that Charlie received a message.,105,NA,18892,acceptability,2,guess,,
193,condition1,0.32,NA,0,verb_focus,Hanako said: John didn't <b>WHISPER</b> that Mary met with the lawyer.,1,NA,16146,acceptability,3,whisper,,
193,condition1,NA,embed,0,embed_focus,Hanako said: Igor didn't shriek that Penny won the <b>LOTTERY</b>.,11,"What Penny won, according to Igor.",15810,backgroundedness,4,shriek,,
193,condition1,0.4,NA,0,verb_focus,Hanako said: Emily didn't <b>SAY</b> that Paul drafted the letter.,302,NA,23578,acceptability,5,say,,
193,condition1,0.14,NA,0,filler_bad,Hanako said: Rui didn't imply that <b>CAROL</b>'s brother signed the contract.,110,NA,12404,acceptability,6,imply,,
193,condition1,0.91,NA,1,embed_focus,Hanako said: Howard didn't mumble that Alex bought a <b>BIRTHDAY CAKE</b>.,3,NA,7289,acceptability,7,mumble,,
193,condition1,0.37,NA,1,filler_bad,Hanako said: Frankie didn't hope that the agent of the <b>GUITARIST</b> would show up. ,111,NA,20889,acceptability,8,hope,,
193,condition1,0.34,NA,1,verb_focus,Hanako said: Ashley didn't <b>GROAN</b> that Hasan talked to the detectives.,8,NA,18729,acceptability,9,groan,,
193,condition1,NA,verb,1,verb_focus,Hanako said: Hannah didn't <b>SAY</b> that George emailed the students.,301,The way Hannah communicated that George emailed the students.,12252,backgroundedness,10,say,,
193,condition1,0.91,NA,1,filler_good,Hanako said: Ollie didn't think that Doug would invite the <b>MAYOR</b>.,101,NA,11112,acceptability,11,think,,
193,condition1,NA,embed,1,embed_focus,Hanako said: Tom didn't say that Sarah admired her <b>FRIEND</b>.,311,"Who Sarah admired, according to Tom.",10994,backgroundedness,12,say,,
193,condition1,0.16,NA,2,filler_bad,Hanako said: Tim didn't suspect that Liz and <b>JASON</b> drank the beer. ,108,NA,11745,acceptability,13,suspect,,
193,condition1,NA,embed,2,embed_focus,Hanako said: Laura didn't mutter that Brandon broke his <b>LAPTOP</b>.,4,"What Brandon broke, according to Laura.",19902,backgroundedness,14,mutter,,
193,condition1,NA,embed,2,embed_focus,Hanako said: Ben didn't say that Laura ordered <b>PIZZA</b>.,307,"What Laura ordered, according to Ben.",10049,backgroundedness,15,say,,
193,condition1,0.86,NA,2,verb_focus,Hanako said: Amy didn't <b>SCREAM</b> that Charlie saw the robber.,6,NA,12720,acceptability,16,scream,,
193,condition1,0.43,NA,2,verb_focus,Hanako said: Sally didn't <b>SAY</b> that Tony would visit George.,303,NA,18562,acceptability,17,say,,
193,condition1,0.91,NA,2,filler_good,Hanako said: <b>MATTHEW</b> didn't hope that Dana brought a gift.,104,NA,6777,acceptability,18,hope,,
193,condition1,0.86,NA,3,embed_focus,Hanako said: Bill didn't shout that Dan knew the <b>PROFESSOR</b>.,5,NA,7281,acceptability,19,shout,,
193,condition1,0.83,NA,3,filler_good,Hanako said: Grace didn't suggest that Karen wrote a <b>BOOK</b>.,102,NA,5162,acceptability,20,suggest,,
193,condition1,NA,verb,3,verb_focus,Hanako said: Jake didn't <b>YELL</b> that Yumi found the wallet.,7,The way Jake communicated that Yumi found the wallet.,6592,backgroundedness,21,yell,,
193,condition1,0.25,NA,3,filler_bad,Hanako said: Jessie didn't guess that the assistant to the <b>DIRECTOR</b> would give the presentation.,112,NA,9570,acceptability,22,guess,,
193,condition1,NA,embed,3,embed_focus,Hanako said: Charlie didn't say that Maddie would call her <b>ROOMMATE</b>.,305,"Who Maddie would call, according to Charlie.",10058,backgroundedness,23,say,,
193,condition1,0.28,NA,3,verb_focus,Hanako said: Tim didn't <b>SAY</b> that Jason drank the beer.,304,NA,17873,acceptability,24,say,,
193,condition1,NA,verb,4,verb_focus,Hanako said: Emma didn't <b>STAMMER</b> that Kevin lost the keys.,2,The way Emma communicated that Kevin lost the keys.,4552,backgroundedness,25,stammer,,
193,condition1,0.89,NA,4,filler_good,Hanako said: <b>JESS</b> didn't reveal that Todd went out with Betty.,106,NA,10257,acceptability,26,reveal,,
193,condition1,0.39,NA,4,verb_focus,Hanako said: Danny didn't <b>SAY</b> that Jennifer got a cat.,308,NA,13257,acceptability,27,say,,
193,condition1,NA,embed,4,embed_focus,Hanako said: Yash didn't whine that Ming forgot her <b>PHONE</b>.,9,"What Ming forgot, according to Yash.",8297,backgroundedness,28,whine,,
193,condition1,0.24,NA,4,filler_bad,Hanakko said: Larry didn't believe that Karl and <b>NICK</b> cooked dinner.,109,NA,8536,acceptability,29,believe,,
193,condition1,0.93,NA,4,embed_focus,Hanako said: Noah didn't say that Sharon wanted a <b>DOG</b>.,312,NA,6025,acceptability,30,say,,
193,condition1,NA,embed,5,embed_focus,Hanako said: Chandler didn't moan that Tia brought her <b>PARENTS</b>.,12,"Who Tia brought, according to Chandler.",9754,backgroundedness,31,moan,,
193,condition1,NA,verb,5,verb_focus,Hanako said: Nancy didn't <b>SAY</b> that Julian ate the cupcake.,309,The way Nancy communicated that Julian ate the cupcake.,6704,backgroundedness,32,say,,
193,condition1,0.87,NA,5,filler_good,Hanako said: Jean didn't believe that Grant adopted a <b>KITTEN</b>.,103,NA,6376,acceptability,33,believe,,
193,condition1,0.2,NA,5,filler_bad,Hanako said: Helen didn't think that Rob and <b>MARC</b> cut the bread. ,107,NA,6465,acceptability,34,think,,
193,condition1,0.35,NA,5,verb_focus,Hanako said: Fatima didn't <b>MURMUR</b> that Omar had dinner with his manager.,10,NA,11177,acceptability,35,murmur,,
193,condition1,0.89,NA,5,embed_focus,Hanako said: Kate didn't say that Zack broke the <b>PLATES</b>.,306,NA,6753,acceptability,36,say,,
231,condition1,1,NA,practice,practice_acceptability_good_1,Hanako said: Fiona didn't buy <b>PINEAPPLES</b>.,201,,,acceptability,0,NA,0,
231,condition1,NA,correct,practice,practice_bg_good_2,Hanako said: Vera didn't <b>DRIVE</b> to Michigan.,202,How Vera travelled to Michigan.,,backgroundedness,0,NA,,
231,condition1,0,NA,practice,practice_accpetability_bad_2,Hanako said: Prisha doesn't speak <b>KOREAN</b>.,204,,,acceptability,0,NA,0,
231,condition1,NA,correct,practice,practice_bg_bad_1,Hanako said: Hank didn't buy the <b>RED</b> car.,203,Which car Hank bought.,,backgroundedness,0,NA,,
231,condition1,1,NA,0,filler_good,Hanako said: Grace didn't suggest that Karen wrote a <b>BOOK</b>.,102,NA,21882,acceptability,1,suggest,,
231,condition1,NA,verb,0,verb_focus,Hanako said: Emily didn't <b>SAY</b> that Paul drafted the letter.,302,The way Emily communicated that Paul drafted the letter.,22557,backgroundedness,2,say,,
231,condition1,NA,embed,0,embed_focus,Hanako said: Noah didn't say that Sharon wanted a <b>DOG</b>.,312,"What Sharon wanted, according to Noah.",10999,backgroundedness,3,say,,
231,condition1,0.42,NA,0,filler_bad,Hanako said: Frankie didn't hope that the agent of the <b>GUITARIST</b> would show up. ,111,NA,109154,acceptability,4,hope,,
231,condition1,0.77,NA,0,verb_focus,Hanako said: Ashley didn't <b>GROAN</b> that Hasan talked to the detectives.,8,NA,10409,acceptability,5,groan,,
231,condition1,0.91,NA,0,embed_focus,Hanako said: Amy didn't scream that Charlie saw the <b>ROBBER</b>.,6,NA,11530,acceptability,6,scream,,
231,condition1,1,NA,1,verb_focus,Hanako said: Hannah didn't <b>SAY</b> that George emailed the students.,301,NA,10168,acceptability,7,say,,
231,condition1,0.79,NA,1,verb_focus,Hanako said: Howard didn't <b>MUMBLE</b> that Alex bought a birthday cake.,3,NA,12998,acceptability,8,mumble,,
231,condition1,NA,embed,1,embed_focus,Hanako said: Sally didn't say that Tony would visit <b>GEORGE</b>.,303,"Who Tony would visit, according to Sally.",22466,backgroundedness,9,say,,
231,condition1,1,NA,1,filler_good,Hanako said: <b>JULIE</b> didn't guess that Charlie received a message.,105,NA,8882,acceptability,10,guess,,
231,condition1,0.07,NA,1,filler_bad,Hanako said: Helen didn't think that Rob and <b>MARC</b> cut the bread. ,107,NA,15484,acceptability,11,think,,
231,condition1,NA,embed,1,embed_focus,Hanako said: Laura didn't mutter that Brandon broke his <b>LAPTOP</b>.,4,"What Brandon broke, according to Laura.",10356,backgroundedness,12,mutter,,
231,condition1,NA,verb,2,verb_focus,Hanako said: Tim didn't <b>SAY</b> that Jason drank the beer.,304,The way Tim communicated that Jason drank the beer.,4803,backgroundedness,13,say,,
231,condition1,0.27,NA,2,verb_focus,Hanako said: Jake didn't <b>YELL</b> that Yumi found the wallet.,7,NA,18557,acceptability,14,yell,,
231,condition1,1,NA,2,filler_good,Hanako said: Jean didn't believe that Grant adopted a <b>KITTEN</b>.,103,NA,23756,acceptability,15,believe,,
231,condition1,0.08,NA,2,filler_bad,Hanako said: Jessie didn't guess that the assistant to the <b>DIRECTOR</b> would give the presentation.,112,NA,22328,acceptability,16,guess,,
231,condition1,1,NA,2,embed_focus,Hanako said: Charlie didn't say that Maddie would call her <b>ROOMMATE</b>.,305,NA,10573,acceptability,17,say,,
231,condition1,NA,embed,2,embed_focus,Hanako said: Igor didn't shriek that Penny won the <b>LOTTERY</b>.,11,"What Penny won, according to Igor.",10591,backgroundedness,18,shriek,,
231,condition1,0,NA,3,filler_bad,Hanakko said: Larry didn't believe that Karl and <b>NICK</b> cooked dinner.,109,NA,12015,acceptability,19,believe,,
231,condition1,NA,embed,3,embed_focus,Hanako said: Kate didn't say that Zack broke the <b>PLATES</b>.,306,"What Zack broke, according to Kate.",6211,backgroundedness,20,say,,
231,condition1,NA,embed,3,embed_focus,Hanako said: Yash didn't whine that Ming forgot her <b>PHONE</b>.,9,"What Ming forgot, according to Yash.",6825,backgroundedness,21,whine,,
231,condition1,1,NA,3,filler_good,Hanako said: <b>JESS</b> didn't reveal that Todd went out with Betty.,106,NA,9362,acceptability,22,reveal,,
231,condition1,0.46,NA,3,verb_focus,Hanako said: Jessie didn't <b>SAY</b> that Michelle borrowed the computer.,310,NA,18127,acceptability,23,say,,
231,condition1,0.24,NA,3,verb_focus,Hanako said: Emma didn't <b>STAMMER</b> that Kevin lost the keys.,2,NA,8284,acceptability,24,stammer,,
231,condition1,1,NA,4,filler_good,Hanako said: <b>MATTHEW</b> didn't hope that Dana brought a gift.,104,NA,5736,acceptability,25,hope,,
231,condition1,1,NA,4,embed_focus,Hanako said: Nancy didn't say that Julian ate the <b>CUPCAKE</b>.,309,NA,6594,acceptability,26,say,,
231,condition1,NA,verb,4,verb_focus,Hanako said: Ben didn't <b>SAY</b> that Laura ordered pizza.,307,The way Ben communicated that Laura ordered pizza.,9391,backgroundedness,27,say,,
231,condition1,0,NA,4,filler_bad,Hanako said: Tim didn't suspect that Liz and <b>JASON</b> drank the beer. ,108,NA,8987,acceptability,28,suspect,,
231,condition1,NA,verb,4,verb_focus,Hanako said: Fatima didn't <b>MURMUR</b> that Omar had dinner with his manager.,10,The way Fatima communicated that Omar had dinner with his manager.,12618,backgroundedness,29,murmur,,
231,condition1,1,NA,4,embed_focus,Hanako said: John didn't whisper that Mary met with the <b>LAWYER</b>.,1,NA,12912,acceptability,30,whisper,,
231,condition1,0.06,NA,5,verb_focus,Hanako said: Chandler didn't <b>MOAN</b> that Tia brought her parents.,12,NA,19722,acceptability,31,moan,,
231,condition1,NA,embed,5,embed_focus,Hanako said: Bill didn't shout that Dan knew the <b>PROFESSOR</b>.,5,"Who Dan knew, according to Bill.",65140,backgroundedness,32,shout,,
231,condition1,NA,embed,5,embed_focus,Hanako said: Danny didn't say that Jennifer got a <b>CAT</b>.,308,"What Jennifer got, according to Danny.",9628,backgroundedness,33,say,,
231,condition1,0.1,NA,5,filler_bad,Hanako said: Rui didn't imply that <b>CAROL</b>'s brother signed the contract.,110,NA,28068,acceptability,34,imply,,
231,condition1,0.86,NA,5,verb_focus,Hanako said: Tom didn't <b>SAY</b> that Sarah admired her friend.,311,NA,11550,acceptability,35,say,,
231,condition1,1,NA,5,filler_good,Hanako said: Ollie didn't think that Doug would invite the <b>MAYOR</b>.,101,NA,57085,acceptability,36,think,,
195,condition1,0.97,NA,practice,practice_acceptability_good_1,Hanako said: Fiona didn't buy <b>PINEAPPLES</b>.,201,,,acceptability,0,NA,0,
195,condition1,NA,correct,practice,practice_bg_good_2,Hanako said: Vera didn't <b>DRIVE</b> to Michigan.,202,How Vera travelled to Michigan.,,backgroundedness,0,NA,,
195,condition1,0,NA,practice,practice_accpetability_bad_2,Hanako said: Prisha doesn't speak <b>KOREAN</b>.,204,,,acceptability,0,NA,0,
195,condition1,NA,correct,practice,practice_bg_bad_1,Hanako said: Hank didn't buy the <b>RED</b> car.,203,Which car Hank bought.,,backgroundedness,0,NA,,
195,condition1,NA,verb,0,verb_focus,Hanako said: Fatima didn't <b>MURMUR</b> that Omar had dinner with his manager.,10,The way Fatima communicated that Omar had dinner with his manager.,21411,backgroundedness,1,murmur,,
195,condition1,NA,embed,0,embed_focus,Hanako said: Emma didn't stammer that Kevin lost the <b>KEYS</b>.,2,"What Kevin lost, according to Emma.",28591,backgroundedness,2,stammer,,
195,condition1,1,NA,0,filler_good,Hanako said: Grace didn't suggest that Karen wrote a <b>BOOK</b>.,102,NA,12104,acceptability,3,suggest,,
195,condition1,0.97,NA,0,embed_focus,Hanako said: Ben didn't say that Laura ordered <b>PIZZA</b>.,307,NA,7611,acceptability,4,say,,
195,condition1,0.04,NA,0,filler_bad,Hanako said: Helen didn't think that Rob and <b>MARC</b> cut the bread. ,107,NA,11765,acceptability,5,think,,
195,condition1,0.98,NA,0,verb_focus,Hanako said: Jessie didn't <b>SAY</b> that Michelle borrowed the computer.,310,NA,9695,acceptability,6,say,,
195,condition1,NA,verb,1,verb_focus,Hanako said: Bill didn't <b>SHOUT</b> that Dan knew the professor.,5,The way Bill communicated that Dan knew the professor.,25404,backgroundedness,7,shout,,
195,condition1,0.97,NA,1,embed_focus,Hanako said: Kate didn't say that Zack broke the <b>PLATES</b>.,306,NA,6659,acceptability,8,say,,
195,condition1,0,NA,1,filler_bad,Hanako said: Tim didn't suspect that Liz and <b>JASON</b> drank the beer. ,108,NA,8771,acceptability,9,suspect,,
195,condition1,NA,embed,1,embed_focus,Hanako said: John didn't whisper that Mary met with the <b>LAWYER</b>.,1,"Who Mary met with, according to John.",10759,backgroundedness,10,whisper,,
195,condition1,0.98,NA,1,filler_good,Hanako said: <b>MATTHEW</b> didn't hope that Dana brought a gift.,104,NA,6669,acceptability,11,hope,,
195,condition1,0.95,NA,1,verb_focus,Hanako said: Danny didn't <b>SAY</b> that Jennifer got a cat.,308,NA,14586,acceptability,12,say,,
195,condition1,0.08,NA,2,filler_bad,Hanakko said: Larry didn't believe that Karl and <b>NICK</b> cooked dinner.,109,NA,10562,acceptability,13,believe,,
195,condition1,NA,verb,2,verb_focus,Hanako said: Hannah didn't <b>SAY</b> that George emailed the students.,301,The way Hannah communicated that George emailed the students.,23544,backgroundedness,14,say,,
195,condition1,NA,embed,2,embed_focus,Hanako said: Chandler didn't moan that Tia brought her <b>PARENTS</b>.,12,"Who Tia brought, according to Chandler.",10796,backgroundedness,15,moan,,
195,condition1,0.89,NA,2,filler_good,Hanako said: Jean didn't believe that Grant adopted a <b>KITTEN</b>.,103,NA,11751,acceptability,16,believe,,
195,condition1,0.43,NA,2,verb_focus,Hanako said: Laura didn't <b>MUTTER</b> that Brandon broke his laptop.,4,NA,17145,acceptability,17,mutter,,
195,condition1,0.98,NA,2,embed_focus,Hanako said: Emily didn't say that Paul drafted the <b>LETTER</b>.,302,NA,13334,acceptability,18,say,,
195,condition1,0.38,NA,3,verb_focus,Hanako said: Howard didn't <b>MUMBLE</b> that Alex bought a birthday cake.,3,NA,10282,acceptability,19,mumble,,
195,condition1,NA,embed,3,embed_focus,Hanako said: Yash didn't whine that Ming forgot her <b>PHONE</b>.,9,"What Ming forgot, according to Yash.",9867,backgroundedness,20,whine,,
195,condition1,NA,verb,3,verb_focus,Hanako said: Tim didn't <b>SAY</b> that Jason drank the beer.,304,The way Tim communicated that Jason drank the beer.,7116,backgroundedness,21,say,,
195,condition1,0.98,NA,3,filler_good,Hanako said: <b>JULIE</b> didn't guess that Charlie received a message.,105,NA,9348,acceptability,22,guess,,
195,condition1,0.55,NA,3,filler_bad,Hanako said: Jessie didn't guess that the assistant to the <b>DIRECTOR</b> would give the presentation.,112,NA,16773,acceptability,23,guess,,
195,condition1,0.96,NA,3,embed_focus,Hanako said: Sally didn't say that Tony would visit <b>GEORGE</b>.,303,NA,7931,acceptability,24,say,,
195,condition1,NA,verb,4,verb_focus,Hanako said: Ashley didn't <b>GROAN</b> that Hasan talked to the detectives.,8,The way Ashley communicated that Hasan talked to the detectives.,7481,backgroundedness,25,groan,,
195,condition1,0.28,NA,4,verb_focus,Hanako said: Charlie didn't <b>SAY</b> that Maddie would call her roommate.,305,NA,11139,acceptability,26,say,,
195,condition1,0.64,NA,4,filler_bad,Hanako said: Frankie didn't hope that the agent of the <b>GUITARIST</b> would show up. ,111,NA,11673,acceptability,27,hope,,
195,condition1,0.99,NA,4,embed_focus,Hanako said: Tom didn't say that Sarah admired her <b>FRIEND</b>.,311,NA,6924,acceptability,28,say,,
195,condition1,NA,embed,4,embed_focus,Hanako said: Jake didn't yell that Yumi found the <b>WALLET</b>.,7,"What Yumi found, according to Jake.",10911,backgroundedness,29,yell,,
195,condition1,1,NA,4,filler_good,Hanako said: Ollie didn't think that Doug would invite the <b>MAYOR</b>.,101,NA,8907,acceptability,30,think,,
195,condition1,0.43,NA,5,verb_focus,Hanako said: Noah didn't <b>SAY</b> that Sharon wanted a dog.,312,NA,9822,acceptability,31,say,,
195,condition1,NA,embed,5,embed_focus,Hanako said: Amy didn't scream that Charlie saw the <b>ROBBER</b>.,6,"Who Charlie saw, according to Amy.",6529,backgroundedness,32,scream,,
195,condition1,0.98,NA,5,filler_good,Hanako said: <b>JESS</b> didn't reveal that Todd went out with Betty.,106,NA,7791,acceptability,33,reveal,,
195,condition1,0.97,NA,5,embed_focus,Hanako said: Nancy didn't say that Julian ate the <b>CUPCAKE</b>.,309,NA,10106,acceptability,34,say,,
195,condition1,NA,verb,5,verb_focus,Hanako said: Igor didn't <b>SHRIEK</b> that Penny won the lottery.,11,The way Igor communicated that Penny won the lottery.,11276,backgroundedness,35,shriek,,
195,condition1,0.2,NA,5,filler_bad,Hanako said: Rui didn't imply that <b>CAROL</b>'s brother signed the contract.,110,NA,12764,acceptability,36,imply,,
209,condition1,0.9,NA,practice,practice_acceptability_good_1,Hanako said: Fiona didn't buy <b>PINEAPPLES</b>.,201,,,acceptability,0,NA,0,
209,condition1,NA,correct,practice,practice_bg_good_2,Hanako said: Vera didn't <b>DRIVE</b> to Michigan.,202,How Vera travelled to Michigan.,,backgroundedness,0,NA,,
209,condition1,0.12,NA,practice,practice_accpetability_bad_2,Hanako said: Prisha doesn't speak <b>KOREAN</b>.,204,,,acceptability,0,NA,0,
209,condition1,NA,correct,practice,practice_bg_bad_1,Hanako said: Hank didn't buy the <b>RED</b> car.,203,Which car Hank bought.,,backgroundedness,0,NA,,
209,condition1,NA,embed,0,verb_focus,Hanako said: Tim didn't <b>SAY</b> that Jason drank the beer.,304,"What Jason drank, according to Tim.",31930,backgroundedness,1,say,,
209,condition1,0.1,NA,0,filler_bad,Hanako said: Tim didn't suspect that Liz and <b>JASON</b> drank the beer. ,108,NA,11801,acceptability,2,suspect,,
209,condition1,0.16,NA,0,embed_focus,Hanako said: Yash didn't whine that Ming forgot her <b>PHONE</b>.,9,NA,15739,acceptability,3,whine,,
209,condition1,0.91,NA,0,embed_focus,Hanako said: Charlie didn't say that Maddie would call her <b>ROOMMATE</b>.,305,NA,7566,acceptability,4,say,,
209,condition1,NA,verb,0,verb_focus,Hanako said: Howard didn't <b>MUMBLE</b> that Alex bought a birthday cake.,3,The way Howard communicated that Alex bought a birthday cake.,13323,backgroundedness,5,mumble,,
209,condition1,0.86,NA,0,filler_good,Hanako said: Grace didn't suggest that Karen wrote a <b>BOOK</b>.,102,NA,10410,acceptability,6,suggest,,
209,condition1,NA,verb,1,verb_focus,Hanako said: Jake didn't <b>YELL</b> that Yumi found the wallet.,7,The way Jake communicated that Yumi found the wallet.,6308,backgroundedness,7,yell,,
209,condition1,0.87,NA,1,filler_bad,Hanako said: Rui didn't imply that <b>CAROL</b>'s brother signed the contract.,110,NA,15061,acceptability,8,imply,,
209,condition1,0.86,NA,1,verb_focus,Hanako said: Hannah didn't <b>SAY</b> that George emailed the students.,301,NA,6966,acceptability,9,say,,
209,condition1,0.87,NA,1,embed_focus,Hanako said: Ben didn't say that Laura ordered <b>PIZZA</b>.,307,NA,9119,acceptability,10,say,,
209,condition1,NA,verb,1,embed_focus,Hanako said: Amy didn't scream that Charlie saw the <b>ROBBER</b>.,6,The way Amy communicated that Charlie saw the robber.,11791,backgroundedness,11,scream,,
209,condition1,0.85,NA,1,filler_good,Hanako said: <b>JULIE</b> didn't guess that Charlie received a message.,105,NA,8458,acceptability,12,guess,,
209,condition1,0.91,NA,2,filler_good,Hanako said: Ollie didn't think that Doug would invite the <b>MAYOR</b>.,101,NA,6744,acceptability,13,think,,
209,condition1,NA,embed,2,embed_focus,Hanako said: Tom didn't say that Sarah admired her <b>FRIEND</b>.,311,"Who Sarah admired, according to Tom.",13613,backgroundedness,14,say,,
209,condition1,0.87,NA,2,verb_focus,Hanako said: Sally didn't <b>SAY</b> that Tony would visit George.,303,NA,9470,acceptability,15,say,,
209,condition1,0.13,NA,2,filler_bad,Hanako said: Helen didn't think that Rob and <b>MARC</b> cut the bread. ,107,NA,14953,acceptability,16,think,,
209,condition1,0.83,NA,2,embed_focus,Hanako said: Bill didn't shout that Dan knew the <b>PROFESSOR</b>.,5,NA,11599,acceptability,17,shout,,
209,condition1,NA,verb,2,verb_focus,Hanako said: Laura didn't <b>MUTTER</b> that Brandon broke his laptop.,4,The way Laura communicated that Brandon broke his laptop.,9963,backgroundedness,18,mutter,,
209,condition1,0.8,NA,3,verb_focus,Hanako said: John didn't <b>WHISPER</b> that Mary met with the lawyer.,1,NA,8448,acceptability,19,whisper,,
209,condition1,0.8,NA,3,filler_bad,Hanako said: Jessie didn't guess that the assistant to the <b>DIRECTOR</b> would give the presentation.,112,NA,14916,acceptability,20,guess,,
209,condition1,NA,embed,3,verb_focus,Hanako said: Nancy didn't <b>SAY</b> that Julian ate the cupcake.,309,"What Julian ate, according to Nancy.",21372,backgroundedness,21,say,,
209,condition1,0.83,NA,3,filler_good,Hanako said: Jean didn't believe that Grant adopted a <b>KITTEN</b>.,103,NA,26842,acceptability,22,believe,,
209,condition1,0.2,NA,3,embed_focus,Hanako said: Igor didn't shriek that Penny won the <b>LOTTERY</b>.,11,NA,12453,acceptability,23,shriek,,
209,condition1,NA,embed,3,embed_focus,Hanako said: Kate didn't say that Zack broke the <b>PLATES</b>.,306,"What Zack broke, according to Kate.",7598,backgroundedness,24,say,,
209,condition1,NA,embed,4,verb_focus,Hanako said: Noah didn't <b>SAY</b> that Sharon wanted a dog.,312,"What Sharon wanted, according to Noah.",5959,backgroundedness,25,say,,
209,condition1,0.1,NA,4,verb_focus,Hanako said: Emma didn't <b>STAMMER</b> that Kevin lost the keys.,2,NA,8158,acceptability,26,stammer,,
209,condition1,0.79,NA,4,filler_good,Hanako said: <b>MATTHEW</b> didn't hope that Dana brought a gift.,104,NA,14369,acceptability,27,hope,,
209,condition1,0.86,NA,4,embed_focus,Hanako said: Danny didn't say that Jennifer got a <b>CAT</b>.,308,NA,7854,acceptability,28,say,,
209,condition1,0.81,NA,4,filler_bad,Hanako said: Frankie didn't hope that the agent of the <b>GUITARIST</b> would show up. ,111,NA,11326,acceptability,29,hope,,
209,condition1,NA,embed,4,embed_focus,Hanako said: Fatima didn't murmur that Omar had dinner with his <b>MANAGER</b>.,10,"Who Omar had dinner with, according to Fatima.",8829,backgroundedness,30,murmur,,
209,condition1,0.85,NA,5,filler_good,Hanako said: <b>JESS</b> didn't reveal that Todd went out with Betty.,106,NA,6261,acceptability,31,reveal,,
209,condition1,NA,embed,5,embed_focus,Hanako said: Emily didn't say that Paul drafted the <b>LETTER</b>.,302,"What Paul drafted, according to Emily.",14021,backgroundedness,32,say,,
209,condition1,0.84,NA,5,embed_focus,Hanako said: Ashley didn't groan that Hasan talked to the <b>DETECTIVES</b>.,8,NA,9023,acceptability,33,groan,,
209,condition1,0.16,NA,5,filler_bad,Hanakko said: Larry didn't believe that Karl and <b>NICK</b> cooked dinner.,109,NA,16069,acceptability,34,believe,,
209,condition1,NA,verb,5,verb_focus,Hanako said: Chandler didn't <b>MOAN</b> that Tia brought her parents.,12,The way Chandler communicated that Tia brought her parents.,9240,backgroundedness,35,moan,,
209,condition1,0.86,NA,5,verb_focus,Hanako said: Jessie didn't <b>SAY</b> that Michelle borrowed the computer.,310,NA,12089,acceptability,36,say,,
173,condition1,0.99,NA,practice,practice_acceptability_good_1,Hanako said: Fiona didn't buy <b>PINEAPPLES</b>.,201,,,acceptability,0,NA,0,
173,condition1,NA,correct,practice,practice_bg_good_2,Hanako said: Vera didn't <b>DRIVE</b> to Michigan.,202,How Vera travelled to Michigan.,,backgroundedness,0,NA,,
173,condition1,0,NA,practice,practice_accpetability_bad_2,Hanako said: Prisha doesn't speak <b>KOREAN</b>.,204,,,acceptability,0,NA,0,
173,condition1,NA,correct,practice,practice_bg_bad_1,Hanako said: Hank didn't buy the <b>RED</b> car.,203,Which car Hank bought.,,backgroundedness,0,NA,,
173,condition1,0.98,NA,0,filler_good,Hanako said: Jean didn't believe that Grant adopted a <b>KITTEN</b>.,103,NA,11701,acceptability,1,believe,,
173,condition1,0.99,NA,0,embed_focus,Hanako said: Jake didn't yell that Yumi found the <b>WALLET</b>.,7,NA,19104,acceptability,2,yell,,
173,condition1,0.19,NA,0,filler_bad,Hanako said: Tim didn't suspect that Liz and <b>JASON</b> drank the beer. ,108,NA,18653,acceptability,3,suspect,,
173,condition1,NA,embed,0,embed_focus,Hanako said: Sally didn't say that Tony would visit <b>GEORGE</b>.,303,"Who Tony would visit, according to Sally.",17121,backgroundedness,4,say,,
173,condition1,0.32,NA,0,verb_focus,Hanako said: Nancy didn't <b>SAY</b> that Julian ate the cupcake.,309,NA,58480,acceptability,5,say,,
173,condition1,NA,verb,0,verb_focus,Hanako said: Chandler didn't <b>MOAN</b> that Tia brought her parents.,12,The way Chandler communicated that Tia brought her parents.,35707,backgroundedness,6,moan,,
173,condition1,0.36,NA,1,verb_focus,Hanako said: Emma didn't <b>STAMMER</b> that Kevin lost the keys.,2,NA,19003,acceptability,7,stammer,,
173,condition1,0.38,NA,1,verb_focus,Hanako said: Tim didn't <b>SAY</b> that Jason drank the beer.,304,NA,16121,acceptability,8,say,,
173,condition1,0.01,NA,1,filler_bad,Hanako said: Helen didn't think that Rob and <b>MARC</b> cut the bread. ,107,NA,13802,acceptability,9,think,,
173,condition1,NA,embed,1,embed_focus,Hanako said: Ben didn't say that Laura ordered <b>PIZZA</b>.,307,"What Laura ordered, according to Ben.",8568,backgroundedness,10,say,,
173,condition1,0.98,NA,1,filler_good,Hanako said: Grace didn't suggest that Karen wrote a <b>BOOK</b>.,102,NA,21752,acceptability,11,suggest,,
173,condition1,NA,embed,1,embed_focus,Hanako said: Laura didn't mutter that Brandon broke his <b>LAPTOP</b>.,4,"What Brandon broke, according to Laura.",9450,backgroundedness,12,mutter,,
173,condition1,0.97,NA,2,filler_good,Hanako said: <b>JULIE</b> didn't guess that Charlie received a message.,105,NA,6701,acceptability,13,guess,,
173,condition1,NA,embed,2,embed_focus,Hanako said: Howard didn't mumble that Alex bought a <b>BIRTHDAY CAKE</b>.,3,"What Alex bought, according to Howard.",12619,backgroundedness,14,mumble,,
173,condition1,1,NA,2,embed_focus,Hanako said: Hannah didn't say that George emailed the <b>STUDENTS</b>.,301,NA,11469,acceptability,15,say,,
173,condition1,NA,verb,2,verb_focus,Hanako said: Amy didn't <b>SCREAM</b> that Charlie saw the robber.,6,The way Amy communicated that Charlie saw the robber.,16987,backgroundedness,16,scream,,
173,condition1,0.38,NA,2,verb_focus,Hanako said: Danny didn't <b>SAY</b> that Jennifer got a cat.,308,NA,17496,acceptability,17,say,,
173,condition1,0.98,NA,2,filler_bad,Hanako said: Frankie didn't hope that the agent of the <b>GUITARIST</b> would show up. ,111,NA,16302,acceptability,18,hope,,
173,condition1,0.45,NA,3,verb_focus,Hanako said: Kate didn't <b>SAY</b> that Zack broke the plates.,306,NA,15837,acceptability,19,say,,
173,condition1,0.99,NA,3,embed_focus,Hanako said: John didn't whisper that Mary met with the <b>LAWYER</b>.,1,NA,20121,acceptability,20,whisper,,
173,condition1,0.98,NA,3,filler_good,Hanako said: Ollie didn't think that Doug would invite the <b>MAYOR</b>.,101,NA,5513,acceptability,21,think,,
173,condition1,NA,verb,3,verb_focus,Hanako said: Igor didn't <b>SHRIEK</b> that Penny won the lottery.,11,The way Igor communicated that Penny won the lottery.,12737,backgroundedness,22,shriek,,
173,condition1,NA,embed,3,embed_focus,Hanako said: Tom didn't say that Sarah admired her <b>FRIEND</b>.,311,"Who Sarah admired, according to Tom.",39159,backgroundedness,23,say,,
173,condition1,0.2,NA,3,filler_bad,Hanakko said: Larry didn't believe that Karl and <b>NICK</b> cooked dinner.,109,NA,22072,acceptability,24,believe,,
173,condition1,0.67,NA,4,filler_bad,Hanako said: Jessie didn't guess that the assistant to the <b>DIRECTOR</b> would give the presentation.,112,NA,23104,acceptability,25,guess,,
173,condition1,NA,verb,4,verb_focus,Hanako said: Bill didn't <b>SHOUT</b> that Dan knew the professor.,5,The way Bill communicated that Dan knew the professor.,10568,backgroundedness,26,shout,,
173,condition1,NA,verb,4,verb_focus,Hanako said: Emily didn't <b>SAY</b> that Paul drafted the letter.,302,The way Emily communicated that Paul drafted the letter.,9885,backgroundedness,27,say,,
173,condition1,0.99,NA,4,embed_focus,Hanako said: Yash didn't whine that Ming forgot her <b>PHONE</b>.,9,NA,9336,acceptability,28,whine,,
173,condition1,0.97,NA,4,filler_good,Hanako said: <b>JESS</b> didn't reveal that Todd went out with Betty.,106,NA,5734,acceptability,29,reveal,,
173,condition1,1,NA,4,embed_focus,Hanako said: Charlie didn't say that Maddie would call her <b>ROOMMATE</b>.,305,NA,10861,acceptability,30,say,,
173,condition1,0.35,NA,5,verb_focus,Hanako said: Fatima didn't <b>MURMUR</b> that Omar had dinner with his manager.,10,NA,7968,acceptability,31,murmur,,
173,condition1,0.72,NA,5,filler_bad,Hanako said: Rui didn't imply that <b>CAROL</b>'s brother signed the contract.,110,NA,23255,acceptability,32,imply,,
173,condition1,0.98,NA,5,filler_good,Hanako said: <b>MATTHEW</b> didn't hope that Dana brought a gift.,104,NA,16223,acceptability,33,hope,,
173,condition1,0.43,NA,5,verb_focus,Hanako said: Noah didn't <b>SAY</b> that Sharon wanted a dog.,312,NA,13102,acceptability,34,say,,
173,condition1,NA,embed,5,embed_focus,Hanako said: Ashley didn't groan that Hasan talked to the <b>DETECTIVES</b>.,8,"Who Hasan talked to, according to Ashley.",9759,backgroundedness,35,groan,,
173,condition1,NA,embed,5,embed_focus,Hanako said: Jessie didn't say that Michelle borrowed the <b>COMPUTER</b>.,310,"What Michelle borrowed, according to Jessie.",3518,backgroundedness,36,say,,
164,condition1,0.84,NA,practice,practice_acceptability_good_1,Hanako said: Fiona didn't buy <b>PINEAPPLES</b>.,201,,,acceptability,0,NA,0,
164,condition1,NA,correct,practice,practice_bg_good_2,Hanako said: Vera didn't <b>DRIVE</b> to Michigan.,202,How Vera travelled to Michigan.,,backgroundedness,0,NA,,
164,condition1,0.06,NA,practice,practice_accpetability_bad_2,Hanako said: Prisha doesn't speak <b>KOREAN</b>.,204,,,acceptability,0,NA,1,
164,condition1,NA,correct,practice,practice_bg_bad_1,Hanako said: Hank didn't buy the <b>RED</b> car.,203,Which car Hank bought.,,backgroundedness,0,NA,,
164,condition1,NA,embed,0,verb_focus,Hanako said: Sally didn't <b>SAY</b> that Tony would visit George.,303,"Who Tony would visit, according to Sally.",10827,backgroundedness,1,say,,
164,condition1,0.91,NA,0,embed_focus,Hanako said: Kate didn't say that Zack broke the <b>PLATES</b>.,306,NA,7695,acceptability,2,say,,
164,condition1,0.9,NA,0,embed_focus,Hanako said: Ashley didn't groan that Hasan talked to the <b>DETECTIVES</b>.,8,NA,9898,acceptability,3,groan,,
164,condition1,NA,verb,0,verb_focus,Hanako said: Amy didn't <b>SCREAM</b> that Charlie saw the robber.,6,The way Amy communicated that Charlie saw the robber.,11510,backgroundedness,4,scream,,
164,condition1,0.83,NA,0,filler_bad,Hanako said: Tim didn't suspect that Liz and <b>JASON</b> drank the beer. ,108,NA,11003,acceptability,5,suspect,,
164,condition1,0.97,NA,0,filler_good,Hanako said: Ollie didn't think that Doug would invite the <b>MAYOR</b>.,101,NA,6763,acceptability,6,think,,
164,condition1,0.97,NA,1,embed_focus,Hanako said: John didn't whisper that Mary met with the <b>LAWYER</b>.,1,NA,4690,acceptability,7,whisper,,
164,condition1,0.9,NA,1,embed_focus,Hanako said: Emily didn't say that Paul drafted the <b>LETTER</b>.,302,NA,7020,acceptability,8,say,,
164,condition1,0.96,NA,1,filler_bad,Hanakko said: Larry didn't believe that Karl and <b>NICK</b> cooked dinner.,109,NA,8524,acceptability,9,believe,,
164,condition1,0.77,NA,1,filler_good,Hanako said: Grace didn't suggest that Karen wrote a <b>BOOK</b>.,102,NA,5221,acceptability,10,suggest,,
164,condition1,NA,verb,1,verb_focus,Hanako said: Ben didn't <b>SAY</b> that Laura ordered pizza.,307,The way Ben communicated that Laura ordered pizza.,6469,backgroundedness,11,say,,
164,condition1,NA,verb,1,verb_focus,Hanako said: Fatima didn't <b>MURMUR</b> that Omar had dinner with his manager.,10,The way Fatima communicated that Omar had dinner with his manager.,5605,backgroundedness,12,murmur,,
164,condition1,NA,embed,2,embed_focus,Hanako said: Chandler didn't moan that Tia brought her <b>PARENTS</b>.,12,"Who Tia brought, according to Chandler.",5055,backgroundedness,13,moan,,
164,condition1,0.81,NA,2,embed_focus,Hanako said: Noah didn't say that Sharon wanted a <b>DOG</b>.,312,NA,6767,acceptability,14,say,,
164,condition1,0.84,NA,2,filler_good,Hanako said: <b>JULIE</b> didn't guess that Charlie received a message.,105,NA,3937,acceptability,15,guess,,
164,condition1,0.88,NA,2,filler_bad,Hanako said: Rui didn't imply that <b>CAROL</b>'s brother signed the contract.,110,NA,7597,acceptability,16,imply,,
164,condition1,NA,verb,2,verb_focus,Hanako said: Charlie didn't <b>SAY</b> that Maddie would call her roommate.,305,The way Charlie communicated that Maddie would call her roommate.,6611,backgroundedness,17,say,,
164,condition1,0.06,NA,2,verb_focus,Hanako said: Emma didn't <b>STAMMER</b> that Kevin lost the keys.,2,NA,8133,acceptability,18,stammer,,
164,condition1,NA,embed,3,embed_focus,Hanako said: Tim didn't say that Jason drank the <b>BEER</b>.,304,"What Jason drank, according to Tim.",6384,backgroundedness,19,say,,
164,condition1,0.83,NA,3,filler_good,Hanako said: Jean didn't believe that Grant adopted a <b>KITTEN</b>.,103,NA,4111,acceptability,20,believe,,
164,condition1,0.05,NA,3,verb_focus,Hanako said: Nancy didn't <b>SAY</b> that Julian ate the cupcake.,309,NA,5871,acceptability,21,say,,
164,condition1,0.88,NA,3,filler_bad,Hanako said: Helen didn't think that Rob and <b>MARC</b> cut the bread. ,107,NA,8242,acceptability,22,think,,
164,condition1,0.08,NA,3,verb_focus,Hanako said: Bill didn't <b>SHOUT</b> that Dan knew the professor.,5,NA,7503,acceptability,23,shout,,
164,condition1,NA,embed,3,embed_focus,Hanako said: Jake didn't yell that Yumi found the <b>WALLET</b>.,7,"What Yumi found, according to Jake.",10694,backgroundedness,24,yell,,
164,condition1,0.93,NA,4,filler_bad,Hanako said: Frankie didn't hope that the agent of the <b>GUITARIST</b> would show up. ,111,NA,8893,acceptability,25,hope,,
164,condition1,0.83,NA,4,filler_good,Hanako said: <b>JESS</b> didn't reveal that Todd went out with Betty.,106,NA,7613,acceptability,26,reveal,,
164,condition1,NA,verb,4,verb_focus,Hanako said: Igor didn't <b>SHRIEK</b> that Penny won the lottery.,11,The way Igor communicated that Penny won the lottery.,4624,backgroundedness,27,shriek,,
164,condition1,0.85,NA,4,embed_focus,Hanako said: Jessie didn't say that Michelle borrowed the <b>COMPUTER</b>.,310,NA,5545,acceptability,28,say,,
164,condition1,0.12,NA,4,verb_focus,Hanako said: Danny didn't <b>SAY</b> that Jennifer got a cat.,308,NA,4954,acceptability,29,say,,
164,condition1,NA,embed,4,embed_focus,Hanako said: Yash didn't whine that Ming forgot her <b>PHONE</b>.,9,"What Ming forgot, according to Yash.",7293,backgroundedness,30,whine,,
164,condition1,0.9,NA,5,filler_good,Hanako said: <b>MATTHEW</b> didn't hope that Dana brought a gift.,104,NA,5405,acceptability,31,hope,,
164,condition1,0.91,NA,5,embed_focus,Hanako said: Hannah didn't say that George emailed the <b>STUDENTS</b>.,301,NA,21469,acceptability,32,say,,
164,condition1,0.77,NA,5,filler_bad,Hanako said: Jessie didn't guess that the assistant to the <b>DIRECTOR</b> would give the presentation.,112,NA,8285,acceptability,33,guess,,
164,condition1,NA,verb,5,verb_focus,Hanako said: Tom didn't <b>SAY</b> that Sarah admired her friend.,311,The way Tom communicated that Sarah admired her friend.,4295,backgroundedness,34,say,,
164,condition1,NA,embed,5,embed_focus,Hanako said: Laura didn't mutter that Brandon broke his <b>LAPTOP</b>.,4,"What Brandon broke, according to Laura.",3009,backgroundedness,35,mutter,,
164,condition1,0.08,NA,5,verb_focus,Hanako said: Howard didn't <b>MUMBLE</b> that Alex bought a birthday cake.,3,NA,4422,acceptability,36,mumble,,
169,condition1,1,NA,practice,practice_acceptability_good_1,Hanako said: Fiona didn't buy <b>PINEAPPLES</b>.,201,,,acceptability,0,NA,0,
169,condition1,NA,correct,practice,practice_bg_good_2,Hanako said: Vera didn't <b>DRIVE</b> to Michigan.,202,How Vera travelled to Michigan.,,backgroundedness,0,NA,,
169,condition1,0,NA,practice,practice_accpetability_bad_2,Hanako said: Prisha doesn't speak <b>KOREAN</b>.,204,,,acceptability,0,NA,0,
169,condition1,NA,correct,practice,practice_bg_bad_1,Hanako said: Hank didn't buy the <b>RED</b> car.,203,Which car Hank bought.,,backgroundedness,0,NA,,
169,condition1,NA,verb,0,verb_focus,Hanako said: Jessie didn't <b>SAY</b> that Michelle borrowed the computer.,310,The way Jessie communicated that Michelle borrowed the computer.,35374,backgroundedness,1,say,,
169,condition1,0.86,NA,0,embed_focus,Hanako said: Charlie didn't say that Maddie would call her <b>ROOMMATE</b>.,305,NA,25376,acceptability,2,say,,
169,condition1,0.99,NA,0,filler_good,Hanako said: <b>JESS</b> didn't reveal that Todd went out with Betty.,106,NA,14332,acceptability,3,reveal,,
169,condition1,0.27,NA,0,filler_bad,Hanako said: Frankie didn't hope that the agent of the <b>GUITARIST</b> would show up. ,111,NA,37017,acceptability,4,hope,,
169,condition1,0.08,NA,0,embed_focus,Hanako said: Ashley didn't groan that Hasan talked to the <b>DETECTIVES</b>.,8,NA,27944,acceptability,5,groan,,
169,condition1,NA,verb,0,verb_focus,Hanako said: Jake didn't <b>YELL</b> that Yumi found the wallet.,7,The way Jake communicated that Yumi found the wallet.,14653,backgroundedness,6,yell,,
169,condition1,0.82,NA,1,embed_focus,Hanako said: Laura didn't mutter that Brandon broke his <b>LAPTOP</b>.,4,NA,14761,acceptability,7,mutter,,
169,condition1,0.99,NA,1,filler_good,Hanako said: <b>MATTHEW</b> didn't hope that Dana brought a gift.,104,NA,12080,acceptability,8,hope,,
169,condition1,1,NA,1,embed_focus,Hanako said: Kate didn't say that Zack broke the <b>PLATES</b>.,306,NA,18342,acceptability,9,say,,
169,condition1,NA,verb,1,verb_focus,Hanako said: Fatima didn't <b>MURMUR</b> that Omar had dinner with his manager.,10,The way Fatima communicated that Omar had dinner with his manager.,10020,backgroundedness,10,murmur,,
169,condition1,0,NA,1,filler_bad,Hanako said: Helen didn't think that Rob and <b>MARC</b> cut the bread. ,107,NA,21232,acceptability,11,think,,
169,condition1,NA,verb,1,verb_focus,Hanako said: Ben didn't <b>SAY</b> that Laura ordered pizza.,307,The way Ben communicated that Laura ordered pizza.,7996,backgroundedness,12,say,,
169,condition1,0.77,NA,2,verb_focus,Hanako said: Chandler didn't <b>MOAN</b> that Tia brought her parents.,12,NA,22314,acceptability,13,moan,,
169,condition1,1,NA,2,filler_good,Hanako said: <b>JULIE</b> didn't guess that Charlie received a message.,105,NA,6956,acceptability,14,guess,,
169,condition1,0.95,NA,2,embed_focus,Hanako said: Yash didn't whine that Ming forgot her <b>PHONE</b>.,9,NA,19266,acceptability,15,whine,,
169,condition1,0,NA,2,filler_bad,Hanako said: Rui didn't imply that <b>CAROL</b>'s brother signed the contract.,110,NA,22544,acceptability,16,imply,,
169,condition1,NA,embed,2,embed_focus,Hanako said: Nancy didn't say that Julian ate the <b>CUPCAKE</b>.,309,"What Julian ate, according to Nancy.",11024,backgroundedness,17,say,,
169,condition1,NA,verb,2,verb_focus,Hanako said: Tom didn't <b>SAY</b> that Sarah admired her friend.,311,The way Tom communicated that Sarah admired her friend.,10484,backgroundedness,18,say,,
169,condition1,NA,verb,3,verb_focus,Hanako said: Noah didn't <b>SAY</b> that Sharon wanted a dog.,312,The way Noah communicated that Sharon wanted a dog.,10173,backgroundedness,19,say,,
169,condition1,NA,verb,3,verb_focus,Hanako said: Amy didn't <b>SCREAM</b> that Charlie saw the robber.,6,The way Amy communicated that Charlie saw the robber.,6190,backgroundedness,20,scream,,
169,condition1,0.74,NA,3,embed_focus,Hanako said: Igor didn't shriek that Penny won the <b>LOTTERY</b>.,11,NA,21000,acceptability,21,shriek,,
169,condition1,1,NA,3,embed_focus,Hanako said: Hannah didn't say that George emailed the <b>STUDENTS</b>.,301,NA,12458,acceptability,22,say,,
169,condition1,1,NA,3,filler_good,Hanako said: Jean didn't believe that Grant adopted a <b>KITTEN</b>.,103,NA,8560,acceptability,23,believe,,
169,condition1,0,NA,3,filler_bad,Hanako said: Tim didn't suspect that Liz and <b>JASON</b> drank the beer. ,108,NA,10466,acceptability,24,suspect,,
169,condition1,NA,verb,4,verb_focus,Hanako said: John didn't <b>WHISPER</b> that Mary met with the lawyer.,1,The way John communicated that Mary met with the lawyer.,4106,backgroundedness,25,whisper,,
169,condition1,0.11,NA,4,verb_focus,Hanako said: Sally didn't <b>SAY</b> that Tony would visit George.,303,NA,22896,acceptability,26,say,,
169,condition1,0.89,NA,4,embed_focus,Hanako said: Emma didn't stammer that Kevin lost the <b>KEYS</b>.,2,NA,8484,acceptability,27,stammer,,
169,condition1,0,NA,4,filler_bad,Hanako said: Jessie didn't guess that the assistant to the <b>DIRECTOR</b> would give the presentation.,112,NA,22616,acceptability,28,guess,,
169,condition1,1,NA,4,filler_good,Hanako said: Grace didn't suggest that Karen wrote a <b>BOOK</b>.,102,NA,5828,acceptability,29,suggest,,
169,condition1,NA,embed,4,embed_focus,Hanako said: Danny didn't say that Jennifer got a <b>CAT</b>.,308,"What Jennifer got, according to Danny.",6500,backgroundedness,30,say,,
169,condition1,1,NA,5,verb_focus,Hanako said: Tim didn't <b>SAY</b> that Jason drank the beer.,304,NA,6190,acceptability,31,say,,
169,condition1,NA,embed,5,embed_focus,Hanako said: Emily didn't say that Paul drafted the <b>LETTER</b>.,302,"What Paul drafted, according to Emily.",7458,backgroundedness,32,say,,
169,condition1,1,NA,5,filler_good,Hanako said: Ollie didn't think that Doug would invite the <b>MAYOR</b>.,101,NA,8228,acceptability,33,think,,
169,condition1,NA,verb,5,verb_focus,Hanako said: Howard didn't <b>MUMBLE</b> that Alex bought a birthday cake.,3,The way Howard communicated that Alex bought a birthday cake.,4090,backgroundedness,34,mumble,,
169,condition1,0,NA,5,filler_bad,Hanakko said: Larry didn't believe that Karl and <b>NICK</b> cooked dinner.,109,NA,13732,acceptability,35,believe,,
169,condition1,1,NA,5,embed_focus,Hanako said: Bill didn't shout that Dan knew the <b>PROFESSOR</b>.,5,NA,7040,acceptability,36,shout,,
220,condition1,0.76,NA,practice,practice_acceptability_good_1,Hanako said: Fiona didn't buy <b>PINEAPPLES</b>.,201,,,acceptability,0,NA,0,
220,condition1,NA,correct,practice,practice_bg_good_2,Hanako said: Vera didn't <b>DRIVE</b> to Michigan.,202,How Vera travelled to Michigan.,,backgroundedness,0,NA,,
220,condition1,0.1,NA,practice,practice_accpetability_bad_2,Hanako said: Prisha doesn't speak <b>KOREAN</b>.,204,,,acceptability,0,NA,0,
220,condition1,NA,correct,practice,practice_bg_bad_1,Hanako said: Hank didn't buy the <b>RED</b> car.,203,Which car Hank bought.,,backgroundedness,0,NA,,
220,condition1,0.76,NA,0,verb_focus,Hanako said: Howard didn't <b>MUMBLE</b> that Alex bought a birthday cake.,3,NA,14171,acceptability,1,mumble,,
220,condition1,0.65,NA,0,filler_bad,Hanako said: Rui didn't imply that <b>CAROL</b>'s brother signed the contract.,110,NA,12731,acceptability,2,imply,,
220,condition1,NA,verb,0,embed_focus,Hanako said: John didn't whisper that Mary met with the <b>LAWYER</b>.,1,The way John communicated that Mary met with the lawyer.,55869,backgroundedness,3,whisper,,
220,condition1,0.59,NA,0,filler_good,Hanako said: <b>JESS</b> didn't reveal that Todd went out with Betty.,106,NA,67177,acceptability,4,reveal,,
220,condition1,NA,embed,0,verb_focus,Hanako said: Emily didn't <b>SAY</b> that Paul drafted the letter.,302,"What Paul drafted, according to Emily.",32719,backgroundedness,5,say,,
220,condition1,0.5,NA,0,embed_focus,Hanako said: Sally didn't say that Tony would visit <b>GEORGE</b>.,303,NA,100958,acceptability,6,say,,
220,condition1,NA,embed,1,embed_focus,Hanako said: Yash didn't whine that Ming forgot her <b>PHONE</b>.,9,"What Ming forgot, according to Yash.",97863,backgroundedness,7,whine,,
220,condition1,0.82,NA,1,verb_focus,Hanako said: Kate didn't <b>SAY</b> that Zack broke the plates.,306,NA,130095,acceptability,8,say,,
220,condition1,0.68,NA,1,embed_focus,Hanako said: Jessie didn't say that Michelle borrowed the <b>COMPUTER</b>.,310,NA,85859,acceptability,9,say,,
220,condition1,0.85,NA,1,filler_good,Hanako said: Grace didn't suggest that Karen wrote a <b>BOOK</b>.,102,NA,106375,acceptability,10,suggest,,
220,condition1,0.39,NA,1,filler_bad,Hanako said: Helen didn't think that Rob and <b>MARC</b> cut the bread. ,107,NA,7710,acceptability,11,think,,
220,condition1,NA,verb,1,verb_focus,Hanako said: Chandler didn't <b>MOAN</b> that Tia brought her parents.,12,The way Chandler communicated that Tia brought her parents.,11768,backgroundedness,12,moan,,
220,condition1,0.2,NA,2,filler_good,Hanako said: <b>MATTHEW</b> didn't hope that Dana brought a gift.,104,NA,64758,acceptability,13,hope,,
220,condition1,NA,verb,2,verb_focus,Hanako said: Hannah didn't <b>SAY</b> that George emailed the students.,301,The way Hannah communicated that George emailed the students.,18784,backgroundedness,14,say,,
220,condition1,0.87,NA,2,filler_bad,Hanakko said: Larry didn't believe that Karl and <b>NICK</b> cooked dinner.,109,NA,39315,acceptability,15,believe,,
220,condition1,NA,verb,2,embed_focus,Hanako said: Jake didn't yell that Yumi found the <b>WALLET</b>.,7,The way Jake communicated that Yumi found the wallet.,6959,backgroundedness,16,yell,,
220,condition1,0.54,NA,2,embed_focus,Hanako said: Danny didn't say that Jennifer got a <b>CAT</b>.,308,NA,39254,acceptability,17,say,,
220,condition1,0.22,NA,2,verb_focus,Hanako said: Fatima didn't <b>MURMUR</b> that Omar had dinner with his manager.,10,NA,19292,acceptability,18,murmur,,
220,condition1,NA,verb,3,embed_focus,Hanako said: Amy didn't scream that Charlie saw the <b>ROBBER</b>.,6,The way Amy communicated that Charlie saw the robber.,13680,backgroundedness,19,scream,,
220,condition1,0.38,NA,3,filler_bad,Hanako said: Jessie didn't guess that the assistant to the <b>DIRECTOR</b> would give the presentation.,112,NA,12574,acceptability,20,guess,,
220,condition1,0.48,NA,3,embed_focus,Hanako said: Tom didn't say that Sarah admired her <b>FRIEND</b>.,311,NA,57995,acceptability,21,say,,
