workerid,proliferate.condition,acceptability_rating,bg_response,block_id,condition,context,item_id,original_bg_choice,rt,task,trial_num,verb,wrong_attempts,error
105,condition1,0.94,NA,practice,practice_acceptability_good_1,Hanako said: Fiona didn't buy <strong>PINEAPPLES</strong>.,201,,,acceptability,0,NA,0,
105,condition1,NA,correct,practice,practice_bg_good_2,Hanako said: Vera didn't <strong>DRIVE</strong> to Michigan.,202,How Vera travelled to Michigan.,,backgroundedness,0,NA,,
105,condition1,0.2,NA,practice,practice_accpetability_bad_2,Hanako said: Prisha doesn't speak <strong>KOREAN</strong>.,204,,,acceptability,0,NA,0,
105,condition1,NA,incorrect,practice,practice_bg_bad_1,Hanako said: Hank didn't buy the <strong>RED</strong> car.,203,Who bought the red car.,,backgroundedness,0,NA,,
105,condition1,0.31,NA,0,embed_focus,Hanako said: Igor didn't shriek that Penny won the <strong>LOTTERY</strong>.,11,NA,13933,acceptability,1,shriek,,
105,condition1,NA,incorrect,0,filler_bad_2,Hanako said: Donald didn't reveal that <strong>KRISHNA</strong>'s parents were moving to Texas.,123,"Where Krishna's parents were moving to, according to Donald.",30006,backgroundedness,2,reveal,,
105,condition1,0.86,NA,0,verb_focus,Hanako said: Emma didn't <strong>STAMMER</strong> that Kevin lost the keys.,2,NA,12814,acceptability,3,stammer,,
105,condition1,0.92,NA,0,filler_good_2,Hanako said: <strong>RONALD</strong> didn't imply that Jacy rented the truck.,107,NA,11753,acceptability,4,imply,,
105,condition1,NA,incorrect,0,filler_bad_1,Hanako said: Helen didn't think that Rob and <strong>MARC</strong> cut the bread. ,114,Who thought that Rob and Marc cut the bread.,20630,backgroundedness,5,think,,
105,condition1,NA,correct,0,filler_good_1,Hanako said: Charlie didn't expect that Maddie would call her <strong>ROOMMATE</strong>.,106,"Who Maddie would call, according to Charlie.",18971,backgroundedness,6,expect,,
105,condition1,0.97,NA,1,filler_good_1,Hanako said: Nancy didn't suspect that Julian ate the <strong> CUPCAKE</strong>.,103,NA,12263,acceptability,7,suspect,,
105,condition1,NA,correct,1,filler_bad_2,Hanako said: Ted didn't insist that <strong>EVA</strong>'s uncle should stay for dinner. ,121,"Whose uncle should stay for dinner, according to Ted.",14858,backgroundedness,8,insist,,
105,condition1,NA,incorrect,1,embed_focus,Hanako said: Ashley didn't groan that Hasan talked to the <strong>DETECTIVES</strong>.,8,The way Ashley said that Hasan talked to the detectives.,13758,backgroundedness,9,groan,,
105,condition1,0.39,NA,1,verb_focus,Hanako said: Chandler didn't <strong>MOAN</strong> that Tia brought her parents.,12,NA,13568,acceptability,10,moan,,
105,condition1,NA,incorrect,1,filler_bad_1,Hanako said: Tony didn't suggest that Frank and <strong>LISA</strong> was in the office.,116,Who suggested that Frank and Lisa was in the office.,11450,backgroundedness,11,suggest,,
105,condition1,0.58,NA,1,filler_good_2,Hanako said: <strong>MATTHEW</strong> didn't hope that Dana brought a gift.,108,NA,11520,acceptability,12,hope,,
105,condition1,NA,incorrect,2,filler_bad_1,Hanako said: Emily didn't say that Kevin and <strong>PAUL</strong> drafted the letter.,113,Who said that Kevin and Paul drafted the letter.,12507,backgroundedness,13,say,,
105,condition1,0.37,NA,2,verb_focus,Hanako said: Fatima didn't <strong>MURMUR</strong> that Omar had dinner with his manager.,10,NA,29189,acceptability,14,murmur,,
105,condition1,0.11,NA,2,filler_bad_2,Hanako said: Jamal didn't expect that the book about <strong>ASTRONOMY</strong> was on the shelf.,124,NA,11998,acceptability,15,expect,,
105,condition1,0.94,NA,2,filler_good_2,Hanako said: <strong>JULIAN</strong> didn't guess that Charlie received a message.,110,NA,18835,acceptability,16,guess,,
105,condition1,NA,correct,2,filler_good_1,Hanako said: Danny didn't believe that Jennifer got a <strong>CAT</strong>.,105,"What Jennifer got, according to Danny.",8810,backgroundedness,17,believe,,
105,condition1,NA,correct,2,embed_focus,Hanako said: Bill didn't shout that Dan knew the <strong>PROFESSOR</strong>.,5,"Who Dan knew, according to Bill.",10584,backgroundedness,18,shout,,
105,condition1,0.88,NA,3,verb_focus,Hanako said: Laura didn't <strong>MUTTER</strong> that Brandon broke his laptop.,4,NA,9482,acceptability,19,mutter,,
105,condition1,NA,incorrect,3,embed_focus,Hanako said: Howard didn't mumble that Alex bought a <strong>BIRTHDAY CAKE</strong>.,3,The way Howard said that Alex bought a birthday cake.,16955,backgroundedness,20,mumble,,
105,condition1,NA,incorrect,3,filler_bad_2,Hanako said: Rui didn't imply that <strong>CAROL</strong>'s brother signed the contract.,119,"What Carol's brother signed, according to Rui.",13511,backgroundedness,21,imply,,
105,condition1,0.17,NA,3,filler_bad_1,Hanako said: Tim didn't suspect that Liz and <strong>JASON</strong> drank the beer. ,115,NA,9859,acceptability,22,suspect,,
105,condition1,0.93,NA,3,filler_good_1,Hanako said: Ollie didn't think that Doug would invite the <strong>MAYOR</strong>.,102,NA,8919,acceptability,23,think,,
105,condition1,NA,incorrect,3,filler_good_2,Hanako said: <strong>KATE</strong> didn't insist that Zack broke the plates.,109,"What Zack broke, according to Kate.",6706,backgroundedness,24,insist,,
105,condition1,NA,incorrect,4,filler_bad_2,Hanako said: Jessie didn't guess that the assistant to the <strong>DIRECTOR</strong> would give the presentation.,122,"What the assistant to the director would do, according to Jessie.",16940,backgroundedness,25,guess,,
105,condition1,NA,incorrect,4,filler_bad_1,Hanako said: Larry didn't believe that Karl and <strong>NICK</strong> cooked dinner.,117,Who believed that Karl and Nick cooked dinner.,13487,backgroundedness,26,believe,,
105,condition1,0.95,NA,4,filler_good_2,Hanako said: <strong>JESS</strong> didn't reveal that Todd went out with Betty.,111,NA,6799,acceptability,27,reveal,,
105,condition1,0.95,NA,4,embed_focus,Hanako said: Amy didn't scream that Charlie saw the <strong>ROBBER</strong>.,6,NA,6059,acceptability,28,scream,,
105,condition1,NA,correct,4,filler_good_1,Hanako said: Grace didn't sugguest that Karen wrote a <strong>BOOK</strong>.,104,"What Karen wrote, according to Grace.",10127,backgroundedness,29,suggest,,
105,condition1,0.91,NA,4,verb_focus,Hanako said: Jake didn't <strong>YELL</strong> that Yumi found the wallet.,7,NA,5516,acceptability,30,yell,,
105,condition1,0.09,NA,5,filler_bad_2,Hanako said: Frankie didn't hope that the agent of the <strong>GUITARIST</strong> would show up. ,120,NA,8285,acceptability,31,hope,,
105,condition1,NA,correct,5,filler_good_2,Hanako said: <strong>SALLY</strong> didn't expect that Tony would visit George.,112,Who expected that Tony would visit George.,11303,backgroundedness,32,expect,,
105,condition1,NA,incorrect,5,filler_good_1,Hanako said: Hannah didn't say that George emailed the <strong>STUDENTS</strong>.,101,"Who emailed the students, according to Hannah.",9717,backgroundedness,33,say,,
105,condition1,NA,incorrect,5,verb_focus,Hanako said: Yash didn't <strong>WHINE</strong> that Ming forgot her phone.,9,"What Ming forgot, according to Yash.",8991,backgroundedness,34,whine,,
105,condition1,0.21,NA,5,filler_bad_1,Hanako said: Ben didn't expect that Judith and <strong>LAURA</strong> would order pizza.,118,NA,5853,acceptability,35,expect,,
105,condition1,0.9,NA,5,embed_focus,Hanako said: John didn't whisper that Mary met with the <strong>LAWYER</strong>.,1,NA,4740,acceptability,36,whisper,,
147,condition1,0.95,NA,practice,practice_acceptability_good_1,Hanako said: Fiona didn't buy <strong>PINEAPPLES</strong>.,201,,,acceptability,0,NA,0,
147,condition1,NA,correct,practice,practice_bg_good_2,Hanako said: Vera didn't <strong>DRIVE</strong> to Michigan.,202,How Vera travelled to Michigan.,,backgroundedness,0,NA,,
147,condition1,0.06,NA,practice,practice_accpetability_bad_2,Hanako said: Prisha doesn't speak <strong>KOREAN</strong>.,204,,,acceptability,0,NA,0,
147,condition1,NA,correct,practice,practice_bg_bad_1,Hanako said: Hank didn't buy the <strong>RED</strong> car.,203,Which car Hank bought.,,backgroundedness,0,NA,,
147,condition1,NA,correct,0,embed_focus,Hanako said: Fatima didn't murmur that Omar had dinner with his <strong>MANAGER</strong>.,10,"Who Omar had dinner with, according to Fatima.",14010,backgroundedness,1,murmur,,
147,condition1,NA,correct,0,filler_bad_2,Hanako said: Jessie didn't guess that the assistant to the <strong>DIRECTOR</strong> would give the presentation.,122,"Whose assistant would give the presentation, according to Jessie.",36308,backgroundedness,2,guess,,
147,condition1,0.1,NA,0,filler_bad_1,Hanako said: Larry didn't believe that Karl and <strong>NICK</strong> cooked dinner.,117,NA,11984,acceptability,3,believe,,
147,condition1,0.65,NA,0,filler_good_2,Hanako said: <strong>MATTHEW</strong> didn't hope that Dana brought a gift.,108,NA,11614,acceptability,4,hope,,
147,condition1,0.4,NA,0,filler_good_1,Hanako said: Grace didn't sugguest that Karen wrote a <strong>BOOK</strong>.,104,NA,14229,acceptability,5,suggest,,
147,condition1,NA,correct,0,verb_focus,Hanako said: Igor didn't <strong>SHRIEK</strong> that Penny won the lottery.,11,The way Igor said that Penny won the lottery.,9626,backgroundedness,6,shriek,,
147,condition1,NA,correct,1,filler_good_2,Hanako said: <strong>RONALD</strong> didn't imply that Jacy rented the truck.,107,Who implied that Jacy rented the truck.,8885,backgroundedness,7,imply,,
147,condition1,0.87,NA,1,filler_good_1,Hanako said: Charlie didn't expect that Maddie would call her <strong>ROOMMATE</strong>.,106,NA,9876,acceptability,8,expect,,
147,condition1,NA,correct,1,embed_focus,Hanako said: Emma didn't stammer that Kevin lost the <strong>KEYS</strong>.,2,"What Kevin lost, according to Emma.",8119,backgroundedness,9,stammer,,
147,condition1,0.13,NA,1,verb_focus,Hanako said: Chandler didn't <strong>MOAN</strong> that Tia brought her parents.,12,NA,8702,acceptability,10,moan,,
147,condition1,0.06,NA,1,filler_bad_2,Hanako said: Jamal didn't expect that the book about <strong>ASTRONOMY</strong> was on the shelf.,124,NA,9935,acceptability,11,expect,,
147,condition1,NA,correct,1,filler_bad_1,Hanako said: Helen didn't think that Rob and <strong>MARC</strong> cut the bread. ,114,"Who else cut the bread other than Rob, according to Helen.",12475,backgroundedness,12,think,,
147,condition1,0.08,NA,2,filler_bad_1,Hanako said: Emily didn't say that Kevin and <strong>PAUL</strong> drafted the letter.,113,NA,6456,acceptability,13,say,,
147,condition1,0.36,NA,2,filler_good_2,Hanako said: <strong>SALLY</strong> didn't expect that Tony would visit George.,112,NA,10268,acceptability,14,expect,,
147,condition1,0.78,NA,2,filler_good_1,Hanako said: Ollie didn't think that Doug would invite the <strong>MAYOR</strong>.,102,NA,6805,acceptability,15,think,,
147,condition1,NA,correct,2,verb_focus,Hanako said: Jake didn't <strong>YELL</strong> that Yumi found the wallet.,7,The way Jake said that Yumi found the wallet.,16967,backgroundedness,16,yell,,
147,condition1,NA,correct,2,filler_bad_2,Hanako said: Frankie didn't hope that the agent of the <strong>GUITARIST</strong> would show up. ,120,"Whose agent would show up, according to Frankie.",13919,backgroundedness,17,hope,,
147,condition1,NA,correct,2,embed_focus,Hanako said: Amy didn't scream that Charlie saw the <strong>ROBBER</strong>.,6,"Who Charlie saw, according to Amy.",17058,backgroundedness,18,scream,,
147,condition1,0.82,NA,3,filler_good_2,Hanako said: <strong>JESS</strong> didn't reveal that Todd went out with Betty.,111,NA,8394,acceptability,19,reveal,,
147,condition1,0.16,NA,3,filler_good_1,Hanako said: Danny didn't believe that Jennifer got a <strong>CAT</strong>.,105,NA,4433,acceptability,20,believe,,
147,condition1,0.13,NA,3,filler_bad_2,Hanako said: Ted didn't insist that <strong>EVA</strong>'s uncle should stay for dinner. ,121,NA,7460,acceptability,21,insist,,
147,condition1,NA,correct,3,filler_bad_1,Hanako said: Ben didn't expect that Judith and <strong>LAURA</strong> would order pizza.,118,"Who else would order pizza other than Judith, according to Ben.",25081,backgroundedness,22,expect,,
147,condition1,NA,correct,3,verb_focus,Hanako said: Bill didn't <strong>SHOUT</strong> that Dan knew the professor.,5,The way Bill said that Dan knew the professor.,6127,backgroundedness,23,shout,,
147,condition1,NA,correct,3,embed_focus,Hanako said: Laura didn't mutter that Brandon broke his <strong>LAPTOP</strong>.,4,"What Brandon broke, according to Laura.",21354,backgroundedness,24,mutter,,
147,condition1,NA,correct,4,verb_focus,Hanako said: John didn't <strong>WHISPER</strong> that Mary met with the lawyer.,1,The way John said that Mary met with the lawyer.,9431,backgroundedness,25,whisper,,
147,condition1,NA,correct,4,filler_bad_1,Hanako said: Tony didn't suggest that Frank and <strong>LISA</strong> was in the office.,116,"Who else was in the office other than Frank, according to Tony.",6895,backgroundedness,26,suggest,,
147,condition1,0.62,NA,4,embed_focus,Hanako said: Howard didn't mumble that Alex bought a <strong>BIRTHDAY CAKE</strong>.,3,NA,7584,acceptability,27,mumble,,
147,condition1,NA,correct,4,filler_good_1,Hanako said: Hannah didn't say that George emailed the <strong>STUDENTS</strong>.,101,"Who George emailed, according to Hannah.",10091,backgroundedness,28,say,,
147,condition1,0.61,NA,4,filler_good_2,Hanako said: <strong>JULIAN</strong> didn't guess that Charlie received a message.,110,NA,5583,acceptability,29,guess,,
147,condition1,0.16,NA,4,filler_bad_2,Hanako said: Donald didn't reveal that <strong>KRISHNA</strong>'s parents were moving to Texas.,123,NA,7109,acceptability,30,reveal,,
147,condition1,NA,incorrect,5,filler_good_1,Hanako said: Nancy didn't suspect that Julian ate the <strong> CUPCAKE</strong>.,103,"Who ate the cupcake, according to Nancy.",14277,backgroundedness,31,suspect,,
147,condition1,NA,correct,5,filler_bad_2,Hanako said: Rui didn't imply that <strong>CAROL</strong>'s brother signed the contract.,119,"Whose brother signed the contract, according to Rui.",14695,backgroundedness,32,imply,,
147,condition1,NA,correct,5,filler_good_2,Hanako said: <strong>KATE</strong> didn't insist that Zack broke the plates.,109,Who insisted that Zack broke the plates.,12986,backgroundedness,33,insist,,
147,condition1,0,NA,5,filler_bad_1,Hanako said: Tim didn't suspect that Liz and <strong>JASON</strong> drank the beer. ,115,NA,7406,acceptability,34,suspect,,
147,condition1,0.62,NA,5,embed_focus,Hanako said: Yash didn't whine that Ming forgot her <strong>PHONE</strong>.,9,NA,6757,acceptability,35,whine,,
147,condition1,0.58,NA,5,verb_focus,Hanako said: Ashley didn't <strong>GROAN</strong> that Hasan talked to the detectives.,8,NA,8936,acceptability,36,groan,,
124,condition1,0.57,NA,practice,practice_acceptability_good_1,Hanako said: Fiona didn't buy <strong>PINEAPPLES</strong>.,201,,,acceptability,0,NA,0,
124,condition1,NA,incorrect,practice,practice_bg_good_2,Hanako said: Vera didn't <strong>DRIVE</strong> to Michigan.,202,Where Vera drove to.,,backgroundedness,0,NA,,
124,condition1,0.48,NA,practice,practice_accpetability_bad_2,Hanako said: Prisha doesn't speak <strong>KOREAN</strong>.,204,,,acceptability,0,NA,0,
124,condition1,NA,correct,practice,practice_bg_bad_1,Hanako said: Hank didn't buy the <strong>RED</strong> car.,203,Which car Hank bought.,,backgroundedness,0,NA,,
124,condition1,NA,incorrect,0,verb_focus,Hanako said: Ashley didn't <strong>GROAN</strong> that Hasan talked to the detectives.,8,"Who Hasan talked to, according to Ashley.",9141,backgroundedness,1,groan,,
124,condition1,0.54,NA,0,embed_focus,Hanako said: Yash didn't whine that Ming forgot her <strong>PHONE</strong>.,9,NA,6226,acceptability,2,whine,,
124,condition1,0.57,NA,0,filler_good_2,Hanako said: <strong>RONALD</strong> didn't imply that Jacy rented the truck.,107,NA,4315,acceptability,3,imply,,
124,condition1,NA,incorrect,0,filler_bad_1,Hanako said: Ben didn't expect that Judith and <strong>LAURA</strong> would order pizza.,118,Who expected that Judith and Laura would order pizza.,4041,backgroundedness,4,expect,,
124,condition1,0.58,NA,0,filler_good_1,Hanako said: Nancy didn't suspect that Julian ate the <strong> CUPCAKE</strong>.,103,NA,24075,acceptability,5,suspect,,
124,condition1,NA,correct,0,filler_bad_2,Hanako said: Jamal didn't expect that the book about <strong>ASTRONOMY</strong> was on the shelf.,124,"Which book was on the shelf, according to Jamal.",3552,backgroundedness,6,expect,,
124,condition1,NA,correct,1,filler_good_2,Hanako said: <strong>KATE</strong> didn't insist that Zack broke the plates.,109,Who insisted that Zack broke the plates.,2780,backgroundedness,7,insist,,
124,condition1,NA,correct,1,verb_focus,Hanako said: Igor didn't <strong>SHRIEK</strong> that Penny won the lottery.,11,The way Igor said that Penny won the lottery.,3292,backgroundedness,8,shriek,,
124,condition1,NA,correct,1,filler_bad_2,Hanako said: Ted didn't insist that <strong>EVA</strong>'s uncle should stay for dinner. ,121,"Whose uncle should stay for dinner, according to Ted.",3803,backgroundedness,9,insist,,
124,condition1,0.5,NA,1,embed_focus,Hanako said: Laura didn't mutter that Brandon broke his <strong>LAPTOP</strong>.,4,NA,4116,acceptability,10,mutter,,
124,condition1,0.57,NA,1,filler_bad_1,Hanako said: Helen didn't think that Rob and <strong>MARC</strong> cut the bread. ,114,NA,6169,acceptability,11,think,,
124,condition1,0.58,NA,1,filler_good_1,Hanako said: Ollie didn't think that Doug would invite the <strong>MAYOR</strong>.,102,NA,2922,acceptability,12,think,,
124,condition1,NA,incorrect,2,filler_good_2,Hanako said: <strong>JULIAN</strong> didn't guess that Charlie received a message.,110,"What Charlie received, according to Julian.",6012,backgroundedness,13,guess,,
124,condition1,NA,incorrect,2,filler_bad_2,Hanako said: Frankie didn't hope that the agent of the <strong>GUITARIST</strong> would show up. ,120,"What the agent of the guitarist did, according to Frankie.",5020,backgroundedness,14,hope,,
124,condition1,0.61,NA,2,embed_focus,Hanako said: Fatima didn't murmur that Omar had dinner with his <strong>MANAGER</strong>.,10,NA,3521,acceptability,15,murmur,,
124,condition1,0.58,NA,2,filler_bad_1,Hanako said: Tim didn't suspect that Liz and <strong>JASON</strong> drank the beer. ,115,NA,4352,acceptability,16,suspect,,
124,condition1,0.51,NA,2,verb_focus,Hanako said: Howard didn't <strong>MUMBLE</strong> that Alex bought a birthday cake.,3,NA,2610,acceptability,17,mumble,,
124,condition1,NA,incorrect,2,filler_good_1,Hanako said: Grace didn't sugguest that Karen wrote a <strong>BOOK</strong>.,104,"Who wrote a book, according to Grace.",4782,backgroundedness,18,suggest,,
124,condition1,0.58,NA,3,filler_bad_1,Hanako said: Larry didn't believe that Karl and <strong>NICK</strong> cooked dinner.,117,NA,4381,acceptability,19,believe,,
124,condition1,NA,correct,3,filler_good_2,Hanako said: <strong>JESS</strong> didn't reveal that Todd went out with Betty.,111,Who revealed that Todd went out with Betty.,4463,backgroundedness,20,reveal,,
124,condition1,0.56,NA,3,filler_good_1,Hanako said: Danny didn't believe that Jennifer got a <strong>CAT</strong>.,105,NA,2795,acceptability,21,believe,,
124,condition1,NA,incorrect,3,embed_focus,Hanako said: Amy didn't scream that Charlie saw the <strong>ROBBER</strong>.,6,The way Amy said that Charlie saw the robber.,4263,backgroundedness,22,scream,,
124,condition1,0.55,NA,3,verb_focus,Hanako said: Chandler didn't <strong>MOAN</strong> that Tia brought her parents.,12,NA,3455,acceptability,23,moan,,
124,condition1,NA,correct,3,filler_bad_2,Hanako said: Jessie didn't guess that the assistant to the <strong>DIRECTOR</strong> would give the presentation.,122,"Whose assistant would give the presentation, according to Jessie.",6233,backgroundedness,24,guess,,
124,condition1,0.56,NA,4,embed_focus,Hanako said: John didn't whisper that Mary met with the <strong>LAWYER</strong>.,1,NA,3300,acceptability,25,whisper,,
124,condition1,NA,correct,4,filler_good_2,Hanako said: <strong>MATTHEW</strong> didn't hope that Dana brought a gift.,108,Who hoped that Dana brought a gift.,5648,backgroundedness,26,hope,,
124,condition1,0.56,NA,4,filler_bad_1,Hanako said: Emily didn't say that Kevin and <strong>PAUL</strong> drafted the letter.,113,NA,2817,acceptability,27,say,,
124,condition1,NA,incorrect,4,filler_bad_2,Hanako said: Donald didn't reveal that <strong>KRISHNA</strong>'s parents were moving to Texas.,123,"Where Krishna's parents were moving to, according to Donald.",5241,backgroundedness,28,reveal,,
124,condition1,0.55,NA,4,filler_good_1,Hanako said: Hannah didn't say that George emailed the <strong>STUDENTS</strong>.,101,NA,3268,acceptability,29,say,,
124,condition1,NA,correct,4,verb_focus,Hanako said: Bill didn't <strong>SHOUT</strong> that Dan knew the professor.,5,The way Bill said that Dan knew the professor.,4663,backgroundedness,30,shout,,
124,condition1,NA,correct,5,filler_good_1,Hanako said: Charlie didn't expect that Maddie would call her <strong>ROOMMATE</strong>.,106,"Who Maddie would call, according to Charlie.",16984,backgroundedness,31,expect,,
124,condition1,0.65,NA,5,filler_good_2,Hanako said: <strong>SALLY</strong> didn't expect that Tony would visit George.,112,NA,3210,acceptability,32,expect,,
124,condition1,0.63,NA,5,filler_bad_2,Hanako said: Rui didn't imply that <strong>CAROL</strong>'s brother signed the contract.,119,NA,3685,acceptability,33,imply,,
124,condition1,NA,correct,5,filler_bad_1,Hanako said: Tony didn't suggest that Frank and <strong>LISA</strong> was in the office.,116,"Who else was in the office other than Frank, according to Tony.",4619,backgroundedness,34,suggest,,
124,condition1,0.61,NA,5,verb_focus,Hanako said: Jake didn't <strong>YELL</strong> that Yumi found the wallet.,7,NA,3869,acceptability,35,yell,,
124,condition1,NA,correct,5,embed_focus,Hanako said: Emma didn't stammer that Kevin lost the <strong>KEYS</strong>.,2,"What Kevin lost, according to Emma.",5317,backgroundedness,36,stammer,,
155,condition1,0.98,NA,practice,practice_acceptability_good_1,Hanako said: Fiona didn't buy <strong>PINEAPPLES</strong>.,201,,,acceptability,0,NA,0,
155,condition1,NA,correct,practice,practice_bg_good_2,Hanako said: Vera didn't <strong>DRIVE</strong> to Michigan.,202,How Vera travelled to Michigan.,,backgroundedness,0,NA,,
155,condition1,0.01,NA,practice,practice_accpetability_bad_2,Hanako said: Prisha doesn't speak <strong>KOREAN</strong>.,204,,,acceptability,0,NA,0,
155,condition1,NA,correct,practice,practice_bg_bad_1,Hanako said: Hank didn't buy the <strong>RED</strong> car.,203,Which car Hank bought.,,backgroundedness,0,NA,,
155,condition1,NA,correct,0,embed_focus,Hanako said: Bill didn't shout that Dan knew the <strong>PROFESSOR</strong>.,5,"Who Dan knew, according to Bill.",18591,backgroundedness,1,shout,,
155,condition1,0.89,NA,0,filler_good_1,Hanako said: Nancy didn't suspect that Julian ate the <strong> CUPCAKE</strong>.,103,NA,19823,acceptability,2,suspect,,
155,condition1,0.46,NA,0,filler_bad_2,Hanako said: Ted didn't insist that <strong>EVA</strong>'s uncle should stay for dinner. ,121,NA,23136,acceptability,3,insist,,
155,condition1,0.99,NA,0,filler_good_2,Hanako said: <strong>RONALD</strong> didn't imply that Jacy rented the truck.,107,NA,14599,acceptability,4,imply,,
155,condition1,NA,correct,0,filler_bad_1,Hanako said: Tim didn't suspect that Liz and <strong>JASON</strong> drank the beer. ,115,"Who else drank the beer other than Liz, according to Tim.",38856,backgroundedness,5,suspect,,
155,condition1,NA,incorrect,0,verb_focus,Hanako said: Yash didn't <strong>WHINE</strong> that Ming forgot her phone.,9,"What Ming forgot, according to Yash.",26369,backgroundedness,6,whine,,
155,condition1,0.99,NA,1,filler_good_2,Hanako said: <strong>JULIAN</strong> didn't guess that Charlie received a message.,110,NA,15248,acceptability,7,guess,,
155,condition1,NA,correct,1,filler_bad_1,Hanako said: Larry didn't believe that Karl and <strong>NICK</strong> cooked dinner.,117,"Who else cooked dinner other than Karl, according to Larry.",21448,backgroundedness,8,believe,,
155,condition1,0.88,NA,1,filler_bad_2,Hanako said: Frankie didn't hope that the agent of the <strong>GUITARIST</strong> would show up. ,120,NA,21479,acceptability,9,hope,,
155,condition1,NA,correct,1,embed_focus,Hanako said: Jake didn't yell that Yumi found the <strong>WALLET</strong>.,7,"What Yumi found, according to Jake.",20848,backgroundedness,10,yell,,
155,condition1,NA,correct,1,filler_good_1,Hanako said: Grace didn't sugguest that Karen wrote a <strong>BOOK</strong>.,104,"What Karen wrote, according to Grace.",14728,backgroundedness,11,suggest,,
155,condition1,0.99,NA,1,verb_focus,Hanako said: Howard didn't <strong>MUMBLE</strong> that Alex bought a birthday cake.,3,NA,19383,acceptability,12,mumble,,
155,condition1,0.97,NA,2,filler_good_1,Hanako said: Danny didn't believe that Jennifer got a <strong>CAT</strong>.,105,NA,11776,acceptability,13,believe,,
155,condition1,0.25,NA,2,filler_bad_2,Hanako said: Jessie didn't guess that the assistant to the <strong>DIRECTOR</strong> would give the presentation.,122,NA,32808,acceptability,14,guess,,
155,condition1,NA,correct,2,embed_focus,Hanako said: John didn't whisper that Mary met with the <strong>LAWYER</strong>.,1,"Who Mary met with, according to John.",24920,backgroundedness,15,whisper,,
155,condition1,0.09,NA,2,filler_bad_1,Hanako said: Emily didn't say that Kevin and <strong>PAUL</strong> drafted the letter.,113,NA,20992,acceptability,16,say,,
155,condition1,NA,incorrect,2,verb_focus,Hanako said: Chandler didn't <strong>MOAN</strong> that Tia brought her parents.,12,"Who Tia brought, according to Chandler.",38152,backgroundedness,17,moan,,
155,condition1,NA,correct,2,filler_good_2,Hanako said: <strong>KATE</strong> didn't insist that Zack broke the plates.,109,Who insisted that Zack broke the plates.,23928,backgroundedness,18,insist,,
155,condition1,0.98,NA,3,embed_focus,Hanako said: Ashley didn't groan that Hasan talked to the <strong>DETECTIVES</strong>.,8,NA,23984,acceptability,19,groan,,
155,condition1,NA,incorrect,3,filler_bad_2,Hanako said: Jamal didn't expect that the book about <strong>ASTRONOMY</strong> was on the shelf.,124,"Where the book about astronomy was, according to Jamal.",34672,backgroundedness,20,expect,,
155,condition1,0.97,NA,3,filler_good_1,Hanako said: Charlie didn't expect that Maddie would call her <strong>ROOMMATE</strong>.,106,NA,16224,acceptability,21,expect,,
155,condition1,NA,correct,3,filler_bad_1,Hanako said: Tony didn't suggest that Frank and <strong>LISA</strong> was in the office.,116,"Who else was in the office other than Frank, according to Tony.",51968,backgroundedness,22,suggest,,
155,condition1,NA,incorrect,3,verb_focus,Hanako said: Fatima didn't <strong>MURMUR</strong> that Omar had dinner with his manager.,10,"Who Omar had dinner with, according to Fatima.",26872,backgroundedness,23,murmur,,
155,condition1,0.46,NA,3,filler_good_2,Hanako said: <strong>MATTHEW</strong> didn't hope that Dana brought a gift.,108,NA,21608,acceptability,24,hope,,
155,condition1,0.77,NA,4,embed_focus,Hanako said: Igor didn't shriek that Penny won the <strong>LOTTERY</strong>.,11,NA,19784,acceptability,25,shriek,,
155,condition1,NA,correct,4,filler_bad_2,Hanako said: Donald didn't reveal that <strong>KRISHNA</strong>'s parents were moving to Texas.,123,"Whose parents were moving to Texas, according to Donald.",13417,backgroundedness,26,reveal,,
155,condition1,NA,correct,4,filler_good_1,Hanako said: Ollie didn't think that Doug would invite the <strong>MAYOR</strong>.,102,"Who Doug would invite, according to Ollie.",15144,backgroundedness,27,think,,
155,condition1,0.36,NA,4,filler_bad_1,Hanako said: Ben didn't expect that Judith and <strong>LAURA</strong> would order pizza.,118,NA,25544,acceptability,28,expect,,
155,condition1,0.69,NA,4,verb_focus,Hanako said: Laura didn't <strong>MUTTER</strong> that Brandon broke his laptop.,4,NA,17992,acceptability,29,mutter,,
155,condition1,NA,correct,4,filler_good_2,Hanako said: <strong>SALLY</strong> didn't expect that Tony would visit George.,112,Who expected that Tony would visit George.,19528,backgroundedness,30,expect,,
155,condition1,0.8,NA,5,filler_good_2,Hanako said: <strong>JESS</strong> didn't reveal that Todd went out with Betty.,111,NA,21520,acceptability,31,reveal,,
155,condition1,NA,correct,5,filler_good_1,Hanako said: Hannah didn't say that George emailed the <strong>STUDENTS</strong>.,101,"Who George emailed, according to Hannah.",24127,backgroundedness,32,say,,
155,condition1,NA,correct,5,verb_focus,Hanako said: Amy didn't <strong>SCREAM</strong> that Charlie saw the robber.,6,The way Amy said that Charlie saw the robber.,12120,backgroundedness,33,scream,,
155,condition1,NA,correct,5,embed_focus,Hanako said: Emma didn't stammer that Kevin lost the <strong>KEYS</strong>.,2,"What Kevin lost, according to Emma.",18464,backgroundedness,34,stammer,,
155,condition1,0.88,NA,5,filler_bad_2,Hanako said: Rui didn't imply that <strong>CAROL</strong>'s brother signed the contract.,119,NA,17840,acceptability,35,imply,,
155,condition1,0.46,NA,5,filler_bad_1,Hanako said: Helen didn't think that Rob and <strong>MARC</strong> cut the bread. ,114,NA,16185,acceptability,36,think,,
132,condition1,1,NA,practice,practice_acceptability_good_1,Hanako said: Fiona didn't buy <strong>PINEAPPLES</strong>.,201,,,acceptability,0,NA,0,
132,condition1,NA,correct,practice,practice_bg_good_2,Hanako said: Vera didn't <strong>DRIVE</strong> to Michigan.,202,How Vera travelled to Michigan.,,backgroundedness,0,NA,,
132,condition1,0,NA,practice,practice_accpetability_bad_2,Hanako said: Prisha doesn't speak <strong>KOREAN</strong>.,204,,,acceptability,0,NA,0,
132,condition1,NA,correct,practice,practice_bg_bad_1,Hanako said: Hank didn't buy the <strong>RED</strong> car.,203,Which car Hank bought.,,backgroundedness,0,NA,,
132,condition1,1,NA,0,filler_good_1,Hanako said: Hannah didn't say that George emailed the <strong>STUDENTS</strong>.,101,NA,12274,acceptability,1,say,,
132,condition1,0.09,NA,0,filler_bad_1,Hanako said: Ben didn't expect that Judith and <strong>LAURA</strong> would order pizza.,118,NA,13909,acceptability,2,expect,,
132,condition1,NA,correct,0,filler_bad_2,Hanako said: Donald didn't reveal that <strong>KRISHNA</strong>'s parents were moving to Texas.,123,"Whose parents were moving to Texas, according to Donald.",20405,backgroundedness,3,reveal,,
132,condition1,0.9,NA,0,filler_good_2,Hanako said: <strong>MATTHEW</strong> didn't hope that Dana brought a gift.,108,NA,14786,acceptability,4,hope,,
132,condition1,NA,correct,0,verb_focus,Hanako said: Yash didn't <strong>WHINE</strong> that Ming forgot her phone.,9,The way Yash said that Ming forgot her phone.,19876,backgroundedness,5,whine,,
132,condition1,NA,correct,0,embed_focus,Hanako said: Ashley didn't groan that Hasan talked to the <strong>DETECTIVES</strong>.,8,"Who Hasan talked to, according to Ashley.",28088,backgroundedness,6,groan,,
132,condition1,NA,correct,1,filler_bad_2,Hanako said: Rui didn't imply that <strong>CAROL</strong>'s brother signed the contract.,119,"Whose brother signed the contract, according to Rui.",28510,backgroundedness,7,imply,,
132,condition1,0.12,NA,1,verb_focus,Hanako said: Bill didn't <strong>SHOUT</strong> that Dan knew the professor.,5,NA,22205,acceptability,8,shout,,
132,condition1,0.69,NA,1,embed_focus,Hanako said: Laura didn't mutter that Brandon broke his <strong>LAPTOP</strong>.,4,NA,11896,acceptability,9,mutter,,
132,condition1,NA,correct,1,filler_good_1,Hanako said: Ollie didn't think that Doug would invite the <strong>MAYOR</strong>.,102,"Who Doug would invite, according to Ollie.",11660,backgroundedness,10,think,,
132,condition1,NA,correct,1,filler_good_2,Hanako said: <strong>RONALD</strong> didn't imply that Jacy rented the truck.,107,Who implied that Jacy rented the truck.,23460,backgroundedness,11,imply,,
132,condition1,0.16,NA,1,filler_bad_1,Hanako said: Helen didn't think that Rob and <strong>MARC</strong> cut the bread. ,114,NA,9655,acceptability,12,think,,
132,condition1,0.82,NA,2,filler_good_2,Hanako said: <strong>SALLY</strong> didn't expect that Tony would visit George.,112,NA,32602,acceptability,13,expect,,
132,condition1,NA,correct,2,filler_bad_1,Hanako said: Larry didn't believe that Karl and <strong>NICK</strong> cooked dinner.,117,"Who else cooked dinner other than Karl, according to Larry.",20316,backgroundedness,14,believe,,
132,condition1,NA,correct,2,embed_focus,Hanako said: Howard didn't mumble that Alex bought a <strong>BIRTHDAY CAKE</strong>.,3,"What Alex bought, according to Howard.",93335,backgroundedness,15,mumble,,
132,condition1,0.99,NA,2,filler_good_1,Hanako said: Charlie didn't expect that Maddie would call her <strong>ROOMMATE</strong>.,106,NA,48960,acceptability,16,expect,,
132,condition1,0.06,NA,2,filler_bad_2,Hanako said: Jessie didn't guess that the assistant to the <strong>DIRECTOR</strong> would give the presentation.,122,NA,18880,acceptability,17,guess,,
132,condition1,NA,correct,2,verb_focus,Hanako said: Jake didn't <strong>YELL</strong> that Yumi found the wallet.,7,The way Jake said that Yumi found the wallet.,12862,backgroundedness,18,yell,,
132,condition1,NA,correct,3,filler_good_2,Hanako said: <strong>JESS</strong> didn't reveal that Todd went out with Betty.,111,Who revealed that Todd went out with Betty.,9344,backgroundedness,19,reveal,,
132,condition1,0.14,NA,3,filler_bad_1,Hanako said: Tony didn't suggest that Frank and <strong>LISA</strong> was in the office.,116,NA,12024,acceptability,20,suggest,,
132,condition1,0.11,NA,3,verb_focus,Hanako said: Amy didn't <strong>SCREAM</strong> that Charlie saw the robber.,6,NA,10025,acceptability,21,scream,,
132,condition1,NA,correct,3,embed_focus,Hanako said: John didn't whisper that Mary met with the <strong>LAWYER</strong>.,1,"Who Mary met with, according to John.",14559,backgroundedness,22,whisper,,
132,condition1,NA,correct,3,filler_bad_2,Hanako said: Jamal didn't expect that the book about <strong>ASTRONOMY</strong> was on the shelf.,124,"Which book was on the shelf, according to Jamal.",14376,backgroundedness,23,expect,,
132,condition1,0.96,NA,3,filler_good_1,Hanako said: Danny didn't believe that Jennifer got a <strong>CAT</strong>.,105,NA,7911,acceptability,24,believe,,
132,condition1,0.96,NA,4,filler_good_1,Hanako said: Grace didn't sugguest that Karen wrote a <strong>BOOK</strong>.,104,NA,9454,acceptability,25,suggest,,
132,condition1,NA,correct,4,filler_bad_1,Hanako said: Emily didn't say that Kevin and <strong>PAUL</strong> drafted the letter.,113,"Who else drafted the letter other than Kevin, according to Emily.",9927,backgroundedness,26,say,,
132,condition1,NA,correct,4,verb_focus,Hanako said: Emma didn't <strong>STAMMER</strong> that Kevin lost the keys.,2,The way Emma said that Kevin lost the keys.,6694,backgroundedness,27,stammer,,
132,condition1,NA,correct,4,filler_bad_2,Hanako said: Ted didn't insist that <strong>EVA</strong>'s uncle should stay for dinner. ,121,"Whose uncle should stay for dinner, according to Ted.",12901,backgroundedness,28,insist,,
132,condition1,0.1,NA,4,embed_focus,Hanako said: Chandler didn't moan that Tia brought her <strong>PARENTS</strong>.,12,NA,7991,acceptability,29,moan,,
132,condition1,0.99,NA,4,filler_good_2,Hanako said: <strong>JULIAN</strong> didn't guess that Charlie received a message.,110,NA,14202,acceptability,30,guess,,
132,condition1,NA,correct,5,filler_good_2,Hanako said: <strong>KATE</strong> didn't insist that Zack broke the plates.,109,Who insisted that Zack broke the plates.,8080,backgroundedness,31,insist,,
132,condition1,NA,correct,5,filler_bad_1,Hanako said: Tim didn't suspect that Liz and <strong>JASON</strong> drank the beer. ,115,"Who else drank the beer other than Liz, according to Tim.",8208,backgroundedness,32,suspect,,
132,condition1,NA,correct,5,filler_good_1,Hanako said: Nancy didn't suspect that Julian ate the <strong> CUPCAKE</strong>.,103,"What Julian ate, according to Nancy.",6931,backgroundedness,33,suspect,,
132,condition1,0.84,NA,5,filler_bad_2,Hanako said: Frankie didn't hope that the agent of the <strong>GUITARIST</strong> would show up. ,120,NA,13584,acceptability,34,hope,,
132,condition1,0.29,NA,5,verb_focus,Hanako said: Igor didn't <strong>SHRIEK</strong> that Penny won the lottery.,11,NA,7836,acceptability,35,shriek,,
132,condition1,0.17,NA,5,embed_focus,Hanako said: Fatima didn't murmur that Omar had dinner with his <strong>MANAGER</strong>.,10,NA,12619,acceptability,36,murmur,,
186,condition1,1,NA,practice,practice_acceptability_good_1,Hanako said: Fiona didn't buy <strong>PINEAPPLES</strong>.,201,,,acceptability,0,NA,0,
186,condition1,NA,incorrect,practice,practice_bg_good_2,Hanako said: Vera didn't <strong>DRIVE</strong> to Michigan.,202,Where Vera drove to.,,backgroundedness,0,NA,,
186,condition1,0,NA,practice,practice_accpetability_bad_2,Hanako said: Prisha doesn't speak <strong>KOREAN</strong>.,204,,,acceptability,0,NA,0,
186,condition1,NA,correct,practice,practice_bg_bad_1,Hanako said: Hank didn't buy the <strong>RED</strong> car.,203,Which car Hank bought.,,backgroundedness,0,NA,,
186,condition1,1,NA,0,filler_good_1,Hanako said: Hannah didn't say that George emailed the <strong>STUDENTS</strong>.,101,NA,23930,acceptability,1,say,,
186,condition1,1,NA,0,filler_good_2,Hanako said: <strong>RONALD</strong> didn't imply that Jacy rented the truck.,107,NA,10954,acceptability,2,imply,,
186,condition1,NA,correct,0,filler_bad_1,Hanako said: Helen didn't think that Rob and <strong>MARC</strong> cut the bread. ,114,"Who else cut the bread other than Rob, according to Helen.",26498,backgroundedness,3,think,,
186,condition1,NA,correct,0,filler_bad_2,Hanako said: Ted didn't insist that <strong>EVA</strong>'s uncle should stay for dinner. ,121,"Whose uncle should stay for dinner, according to Ted.",16042,backgroundedness,4,insist,,
186,condition1,0.75,NA,0,embed_focus,Hanako said: Bill didn't shout that Dan knew the <strong>PROFESSOR</strong>.,5,NA,14387,acceptability,5,shout,,
186,condition1,NA,correct,0,verb_focus,Hanako said: Chandler didn't <strong>MOAN</strong> that Tia brought her parents.,12,The way Chandler said that Tia brought her parents.,14849,backgroundedness,6,moan,,
186,condition1,0.28,NA,1,verb_focus,Hanako said: Igor didn't <strong>SHRIEK</strong> that Penny won the lottery.,11,NA,19041,acceptability,7,shriek,,
186,condition1,NA,correct,1,filler_good_1,Hanako said: Grace didn't sugguest that Karen wrote a <strong>BOOK</strong>.,104,"What Karen wrote, according to Grace.",13109,backgroundedness,8,suggest,,
186,condition1,NA,correct,1,embed_focus,Hanako said: Fatima didn't murmur that Omar had dinner with his <strong>MANAGER</strong>.,10,"Who Omar had dinner with, according to Fatima.",11582,backgroundedness,9,murmur,,
186,condition1,1,NA,1,filler_good_2,Hanako said: <strong>JESS</strong> didn't reveal that Todd went out with Betty.,111,NA,8382,acceptability,10,reveal,,
186,condition1,0.24,NA,1,filler_bad_1,Hanako said: Larry didn't believe that Karl and <strong>NICK</strong> cooked dinner.,117,NA,10588,acceptability,11,believe,,
186,condition1,NA,correct,1,filler_bad_2,Hanako said: Frankie didn't hope that the agent of the <strong>GUITARIST</strong> would show up. ,120,"Whose agent would show up, according to Frankie.",10498,backgroundedness,12,hope,,
186,condition1,NA,correct,2,filler_good_2,Hanako said: <strong>MATTHEW</strong> didn't hope that Dana brought a gift.,108,Who hoped that Dana brought a gift.,7696,backgroundedness,13,hope,,
186,condition1,NA,correct,2,filler_good_1,Hanako said: Nancy didn't suspect that Julian ate the <strong> CUPCAKE</strong>.,103,"What Julian ate, according to Nancy.",10648,backgroundedness,14,suspect,,
186,condition1,NA,correct,2,filler_bad_1,Hanako said: Emily didn't say that Kevin and <strong>PAUL</strong> drafted the letter.,113,"Who else drafted the letter other than Kevin, according to Emily.",10026,backgroundedness,15,say,,
186,condition1,0.74,NA,2,embed_focus,Hanako said: Yash didn't whine that Ming forgot her <strong>PHONE</strong>.,9,NA,13398,acceptability,16,whine,,
186,condition1,0.14,NA,2,verb_focus,Hanako said: Howard didn't <strong>MUMBLE</strong> that Alex bought a birthday cake.,3,NA,62003,acceptability,17,mumble,,
186,condition1,0.24,NA,2,filler_bad_2,Hanako said: Rui didn't imply that <strong>CAROL</strong>'s brother signed the contract.,119,NA,10507,acceptability,18,imply,,
186,condition1,NA,correct,3,filler_bad_2,Hanako said: Jamal didn't expect that the book about <strong>ASTRONOMY</strong> was on the shelf.,124,"Which book was on the shelf, according to Jamal.",8543,backgroundedness,19,expect,,
186,condition1,0.2,NA,3,filler_bad_1,Hanako said: Tony didn't suggest that Frank and <strong>LISA</strong> was in the office.,116,NA,27476,acceptability,20,suggest,,
186,condition1,1,NA,3,filler_good_2,Hanako said: <strong>KATE</strong> didn't insist that Zack broke the plates.,109,NA,7178,acceptability,21,insist,,
186,condition1,1,NA,3,filler_good_1,Hanako said: Danny didn't believe that Jennifer got a <strong>CAT</strong>.,105,NA,8031,acceptability,22,believe,,
186,condition1,NA,correct,3,verb_focus,Hanako said: Laura didn't <strong>MUTTER</strong> that Brandon broke his laptop.,4,The way Laura said that Brandon broke his laptop.,7213,backgroundedness,23,mutter,,
186,condition1,NA,correct,3,embed_focus,Hanako said: Jake didn't yell that Yumi found the <strong>WALLET</strong>.,7,"What Yumi found, according to Jake.",4476,backgroundedness,24,yell,,
186,condition1,0.82,NA,4,filler_bad_2,Hanako said: Donald didn't reveal that <strong>KRISHNA</strong>'s parents were moving to Texas.,123,NA,9075,acceptability,25,reveal,,
186,condition1,NA,correct,4,embed_focus,Hanako said: Emma didn't stammer that Kevin lost the <strong>KEYS</strong>.,2,"What Kevin lost, according to Emma.",10587,backgroundedness,26,stammer,,
186,condition1,NA,correct,4,verb_focus,Hanako said: John didn't <strong>WHISPER</strong> that Mary met with the lawyer.,1,The way John said that Mary met with the lawyer.,4857,backgroundedness,27,whisper,,
186,condition1,0.3,NA,4,filler_bad_1,Hanako said: Ben didn't expect that Judith and <strong>LAURA</strong> would order pizza.,118,NA,11560,acceptability,28,expect,,
186,condition1,1,NA,4,filler_good_1,Hanako said: Ollie didn't think that Doug would invite the <strong>MAYOR</strong>.,102,NA,10963,acceptability,29,think,,
186,condition1,NA,correct,4,filler_good_2,Hanako said: <strong>JULIAN</strong> didn't guess that Charlie received a message.,110,Who guessed that Charlie received a message.,6349,backgroundedness,30,guess,,
186,condition1,NA,correct,5,filler_bad_2,Hanako said: Jessie didn't guess that the assistant to the <strong>DIRECTOR</strong> would give the presentation.,122,"Whose assistant would give the presentation, according to Jessie.",11173,backgroundedness,31,guess,,
186,condition1,1,NA,5,filler_good_2,Hanako said: <strong>SALLY</strong> didn't expect that Tony would visit George.,112,NA,9923,acceptability,32,expect,,
186,condition1,0.86,NA,5,embed_focus,Hanako said: Ashley didn't groan that Hasan talked to the <strong>DETECTIVES</strong>.,8,NA,11065,acceptability,33,groan,,
186,condition1,NA,correct,5,filler_bad_1,Hanako said: Tim didn't suspect that Liz and <strong>JASON</strong> drank the beer. ,115,"Who else drank the beer other than Liz, according to Tim.",8549,backgroundedness,34,suspect,,
186,condition1,NA,correct,5,verb_focus,Hanako said: Amy didn't <strong>SCREAM</strong> that Charlie saw the robber.,6,The way Amy said that Charlie saw the robber.,10094,backgroundedness,35,scream,,
186,condition1,1,NA,5,filler_good_1,Hanako said: Charlie didn't expect that Maddie would call her <strong>ROOMMATE</strong>.,106,NA,8940,acceptability,36,expect,,
183,condition1,0.98,NA,practice,practice_acceptability_good_1,Hanako said: Fiona didn't buy <strong>PINEAPPLES</strong>.,201,,,acceptability,0,NA,0,
183,condition1,NA,correct,practice,practice_bg_good_2,Hanako said: Vera didn't <strong>DRIVE</strong> to Michigan.,202,How Vera travelled to Michigan.,,backgroundedness,0,NA,,
183,condition1,0.03,NA,practice,practice_accpetability_bad_2,Hanako said: Prisha doesn't speak <strong>KOREAN</strong>.,204,,,acceptability,0,NA,0,
183,condition1,NA,correct,practice,practice_bg_bad_1,Hanako said: Hank didn't buy the <strong>RED</strong> car.,203,Which car Hank bought.,,backgroundedness,0,NA,,
183,condition1,0.01,NA,0,filler_bad_2,Hanako said: Jamal didn't expect that the book about <strong>ASTRONOMY</strong> was on the shelf.,124,NA,19428,acceptability,1,expect,,
183,condition1,NA,correct,0,filler_good_2,Hanako said: <strong>JULIAN</strong> didn't guess that Charlie received a message.,110,Who guessed that Charlie received a message.,7016,backgroundedness,2,guess,,
183,condition1,0.03,NA,0,filler_bad_1,Hanako said: Helen didn't think that Rob and <strong>MARC</strong> cut the bread. ,114,NA,16139,acceptability,3,think,,
183,condition1,0.01,NA,0,embed_focus,Hanako said: Ashley didn't groan that Hasan talked to the <strong>DETECTIVES</strong>.,8,NA,5292,acceptability,4,groan,,
183,condition1,NA,correct,0,filler_good_1,Hanako said: Ollie didn't think that Doug would invite the <strong>MAYOR</strong>.,102,"Who Doug would invite, according to Ollie.",7555,backgroundedness,5,think,,
183,condition1,NA,correct,0,verb_focus,Hanako said: Amy didn't <strong>SCREAM</strong> that Charlie saw the robber.,6,The way Amy said that Charlie saw the robber.,9874,backgroundedness,6,scream,,
183,condition1,0.99,NA,1,filler_good_2,Hanako said: <strong>MATTHEW</strong> didn't hope that Dana brought a gift.,108,NA,6610,acceptability,7,hope,,
183,condition1,0.03,NA,1,embed_focus,Hanako said: Igor didn't shriek that Penny won the <strong>LOTTERY</strong>.,11,NA,11295,acceptability,8,shriek,,
183,condition1,0,NA,1,filler_bad_1,Hanako said: Ben didn't expect that Judith and <strong>LAURA</strong> would order pizza.,118,NA,9405,acceptability,9,expect,,
183,condition1,NA,correct,1,verb_focus,Hanako said: Laura didn't <strong>MUTTER</strong> that Brandon broke his laptop.,4,The way Laura said that Brandon broke his laptop.,8650,backgroundedness,10,mutter,,
183,condition1,NA,correct,1,filler_bad_2,Hanako said: Frankie didn't hope that the agent of the <strong>GUITARIST</strong> would show up. ,120,"Whose agent would show up, according to Frankie.",17656,backgroundedness,11,hope,,
183,condition1,NA,correct,1,filler_good_1,Hanako said: Charlie didn't expect that Maddie would call her <strong>ROOMMATE</strong>.,106,"Who Maddie would call, according to Charlie.",10864,backgroundedness,12,expect,,
183,condition1,NA,correct,2,verb_focus,Hanako said: John didn't <strong>WHISPER</strong> that Mary met with the lawyer.,1,The way John said that Mary met with the lawyer.,8914,backgroundedness,13,whisper,,
183,condition1,NA,correct,2,filler_good_1,Hanako said: Grace didn't sugguest that Karen wrote a <strong>BOOK</strong>.,104,"What Karen wrote, according to Grace.",5922,backgroundedness,14,suggest,,
183,condition1,0.01,NA,2,filler_bad_2,Hanako said: Rui didn't imply that <strong>CAROL</strong>'s brother signed the contract.,119,NA,7777,acceptability,15,imply,,
183,condition1,0.98,NA,2,filler_good_2,Hanako said: <strong>SALLY</strong> didn't expect that Tony would visit George.,112,NA,5924,acceptability,16,expect,,
183,condition1,NA,correct,2,filler_bad_1,Hanako said: Emily didn't say that Kevin and <strong>PAUL</strong> drafted the letter.,113,"Who else drafted the letter other than Kevin, according to Emily.",8414,backgroundedness,17,say,,
183,condition1,0.99,NA,2,embed_focus,Hanako said: Emma didn't stammer that Kevin lost the <strong>KEYS</strong>.,2,NA,14696,acceptability,18,stammer,,
183,condition1,0.47,NA,3,verb_focus,Hanako said: Yash didn't <strong>WHINE</strong> that Ming forgot her phone.,9,NA,17559,acceptability,19,whine,,
183,condition1,NA,correct,3,filler_bad_2,Hanako said: Ted didn't insist that <strong>EVA</strong>'s uncle should stay for dinner. ,121,"Whose uncle should stay for dinner, according to Ted.",12685,backgroundedness,20,insist,,
183,condition1,NA,correct,3,filler_good_2,Hanako said: <strong>JESS</strong> didn't reveal that Todd went out with Betty.,111,Who revealed that Todd went out with Betty.,9699,backgroundedness,21,reveal,,
183,condition1,0.02,NA,3,filler_bad_1,Hanako said: Tony didn't suggest that Frank and <strong>LISA</strong> was in the office.,116,NA,9756,acceptability,22,suggest,,
183,condition1,0.99,NA,3,filler_good_1,Hanako said: Danny didn't believe that Jennifer got a <strong>CAT</strong>.,105,NA,8829,acceptability,23,believe,,
183,condition1,NA,correct,3,embed_focus,Hanako said: Fatima didn't murmur that Omar had dinner with his <strong>MANAGER</strong>.,10,"Who Omar had dinner with, according to Fatima.",8199,backgroundedness,24,murmur,,
183,condition1,0,NA,4,filler_bad_2,Hanako said: Donald didn't reveal that <strong>KRISHNA</strong>'s parents were moving to Texas.,123,NA,10981,acceptability,25,reveal,,
183,condition1,NA,correct,4,filler_bad_1,Hanako said: Larry didn't believe that Karl and <strong>NICK</strong> cooked dinner.,117,"Who else cooked dinner other than Karl, according to Larry.",10490,backgroundedness,26,believe,,
183,condition1,NA,correct,4,filler_good_2,Hanako said: <strong>KATE</strong> didn't insist that Zack broke the plates.,109,Who insisted that Zack broke the plates.,8202,backgroundedness,27,insist,,
183,condition1,0.98,NA,4,filler_good_1,Hanako said: Nancy didn't suspect that Julian ate the <strong> CUPCAKE</strong>.,103,NA,8235,acceptability,28,suspect,,
183,condition1,0.99,NA,4,embed_focus,Hanako said: Howard didn't mumble that Alex bought a <strong>BIRTHDAY CAKE</strong>.,3,NA,7295,acceptability,29,mumble,,
183,condition1,NA,correct,4,verb_focus,Hanako said: Jake didn't <strong>YELL</strong> that Yumi found the wallet.,7,The way Jake said that Yumi found the wallet.,6842,backgroundedness,30,yell,,
183,condition1,0.01,NA,5,filler_bad_1,Hanako said: Tim didn't suspect that Liz and <strong>JASON</strong> drank the beer. ,115,NA,5421,acceptability,31,suspect,,
183,condition1,NA,correct,5,filler_bad_2,Hanako said: Jessie didn't guess that the assistant to the <strong>DIRECTOR</strong> would give the presentation.,122,"Whose assistant would give the presentation, according to Jessie.",13751,backgroundedness,32,guess,,
183,condition1,1,NA,5,filler_good_1,Hanako said: Hannah didn't say that George emailed the <strong>STUDENTS</strong>.,101,NA,10960,acceptability,33,say,,
183,condition1,NA,correct,5,filler_good_2,Hanako said: <strong>RONALD</strong> didn't imply that Jacy rented the truck.,107,Who implied that Jacy rented the truck.,8935,backgroundedness,34,imply,,
183,condition1,0.48,NA,5,verb_focus,Hanako said: Bill didn't <strong>SHOUT</strong> that Dan knew the professor.,5,NA,15969,acceptability,35,shout,,
183,condition1,NA,correct,5,embed_focus,Hanako said: Chandler didn't moan that Tia brought her <strong>PARENTS</strong>.,12,"Who Tia brought, according to Chandler.",9743,backgroundedness,36,moan,,
189,condition1,0.88,NA,practice,practice_acceptability_good_1,Hanako said: Fiona didn't buy <strong>PINEAPPLES</strong>.,201,,,acceptability,0,NA,0,
189,condition1,NA,incorrect,practice,practice_bg_good_2,Hanako said: Vera didn't <strong>DRIVE</strong> to Michigan.,202,Where Vera drove to.,,backgroundedness,0,NA,,
189,condition1,0.16,NA,practice,practice_accpetability_bad_2,Hanako said: Prisha doesn't speak <strong>KOREAN</strong>.,204,,,acceptability,0,NA,0,
189,condition1,NA,correct,practice,practice_bg_bad_1,Hanako said: Hank didn't buy the <strong>RED</strong> car.,203,Which car Hank bought.,,backgroundedness,0,NA,,
189,condition1,NA,correct,0,filler_bad_1,Hanako said: Larry didn't believe that Karl and <strong>NICK</strong> cooked dinner.,117,"Who else cooked dinner other than Karl, according to Larry.",11266,backgroundedness,1,believe,,
189,condition1,NA,correct,0,filler_good_1,Hanako said: Danny didn't believe that Jennifer got a <strong>CAT</strong>.,105,"What Jennifer got, according to Danny.",8034,backgroundedness,2,believe,,
189,condition1,NA,correct,0,filler_good_2,Hanako said: <strong>KATE</strong> didn't insist that Zack broke the plates.,109,Who insisted that Zack broke the plates.,4147,backgroundedness,3,insist,,
189,condition1,0.33,NA,0,verb_focus,Hanako said: John didn't <strong>WHISPER</strong> that Mary met with the lawyer.,1,NA,7130,acceptability,4,whisper,,
189,condition1,0.18,NA,0,embed_focus,Hanako said: Bill didn't shout that Dan knew the <strong>PROFESSOR</strong>.,5,NA,4419,acceptability,5,shout,,
189,condition1,0.82,NA,0,filler_bad_2,Hanako said: Jamal didn't expect that the book about <strong>ASTRONOMY</strong> was on the shelf.,124,NA,8010,acceptability,6,expect,,
189,condition1,NA,correct,1,filler_good_2,Hanako said: <strong>JULIAN</strong> didn't guess that Charlie received a message.,110,Who guessed that Charlie received a message.,4963,backgroundedness,7,guess,,
189,condition1,NA,correct,1,verb_focus,Hanako said: Igor didn't <strong>SHRIEK</strong> that Penny won the lottery.,11,The way Igor said that Penny won the lottery.,7378,backgroundedness,8,shriek,,
189,condition1,0.79,NA,1,filler_good_1,Hanako said: Nancy didn't suspect that Julian ate the <strong> CUPCAKE</strong>.,103,NA,4150,acceptability,9,suspect,,
189,condition1,0.82,NA,1,filler_bad_1,Hanako said: Ben didn't expect that Judith and <strong>LAURA</strong> would order pizza.,118,NA,5090,acceptability,10,expect,,
189,condition1,NA,correct,1,embed_focus,Hanako said: Fatima didn't murmur that Omar had dinner with his <strong>MANAGER</strong>.,10,"Who Omar had dinner with, according to Fatima.",12725,backgroundedness,11,murmur,,
189,condition1,0.73,NA,1,filler_bad_2,Hanako said: Frankie didn't hope that the agent of the <strong>GUITARIST</strong> would show up. ,120,NA,3091,acceptability,12,hope,,
189,condition1,NA,correct,2,filler_good_2,Hanako said: <strong>JESS</strong> didn't reveal that Todd went out with Betty.,111,Who revealed that Todd went out with Betty.,7958,backgroundedness,13,reveal,,
189,condition1,NA,correct,2,filler_bad_2,Hanako said: Ted didn't insist that <strong>EVA</strong>'s uncle should stay for dinner. ,121,"Whose uncle should stay for dinner, according to Ted.",7130,backgroundedness,14,insist,,
189,condition1,NA,correct,2,embed_focus,Hanako said: Emma didn't stammer that Kevin lost the <strong>KEYS</strong>.,2,"What Kevin lost, according to Emma.",2974,backgroundedness,15,stammer,,
189,condition1,0.26,NA,2,verb_focus,Hanako said: Yash didn't <strong>WHINE</strong> that Ming forgot her phone.,9,NA,9702,acceptability,16,whine,,
189,condition1,0.78,NA,2,filler_good_1,Hanako said: Ollie didn't think that Doug would invite the <strong>MAYOR</strong>.,102,NA,2787,acceptability,17,think,,
189,condition1,0.76,NA,2,filler_bad_1,Hanako said: Emily didn't say that Kevin and <strong>PAUL</strong> drafted the letter.,113,NA,2880,acceptability,18,say,,
189,condition1,0.37,NA,3,filler_good_1,Hanako said: Charlie didn't expect that Maddie would call her <strong>ROOMMATE</strong>.,106,NA,5130,acceptability,19,expect,,
189,condition1,NA,correct,3,embed_focus,Hanako said: Laura didn't mutter that Brandon broke his <strong>LAPTOP</strong>.,4,"What Brandon broke, according to Laura.",7139,backgroundedness,20,mutter,,
189,condition1,0.78,NA,3,filler_good_2,Hanako said: <strong>RONALD</strong> didn't imply that Jacy rented the truck.,107,NA,5610,acceptability,21,imply,,
189,condition1,0.75,NA,3,filler_bad_2,Hanako said: Donald didn't reveal that <strong>KRISHNA</strong>'s parents were moving to Texas.,123,NA,8042,acceptability,22,reveal,,
189,condition1,NA,correct,3,filler_bad_1,Hanako said: Helen didn't think that Rob and <strong>MARC</strong> cut the bread. ,114,"Who else cut the bread other than Rob, according to Helen.",8551,backgroundedness,23,think,,
189,condition1,NA,correct,3,verb_focus,Hanako said: Ashley didn't <strong>GROAN</strong> that Hasan talked to the detectives.,8,The way Ashley said that Hasan talked to the detectives.,3178,backgroundedness,24,groan,,
189,condition1,0.83,NA,4,filler_good_2,Hanako said: <strong>SALLY</strong> didn't expect that Tony would visit George.,112,NA,2943,acceptability,25,expect,,
189,condition1,0.29,NA,4,embed_focus,Hanako said: Amy didn't scream that Charlie saw the <strong>ROBBER</strong>.,6,NA,5218,acceptability,26,scream,,
189,condition1,0.22,NA,4,verb_focus,Hanako said: Jake didn't <strong>YELL</strong> that Yumi found the wallet.,7,NA,4087,acceptability,27,yell,,
189,condition1,NA,correct,4,filler_bad_1,Hanako said: Tony didn't suggest that Frank and <strong>LISA</strong> was in the office.,116,"Who else was in the office other than Frank, according to Tony.",5376,backgroundedness,28,suggest,,
189,condition1,NA,correct,4,filler_good_1,Hanako said: Grace didn't sugguest that Karen wrote a <strong>BOOK</strong>.,104,"What Karen wrote, according to Grace.",8329,backgroundedness,29,suggest,,
189,condition1,NA,correct,4,filler_bad_2,Hanako said: Jessie didn't guess that the assistant to the <strong>DIRECTOR</strong> would give the presentation.,122,"Whose assistant would give the presentation, according to Jessie.",6802,backgroundedness,30,guess,,
189,condition1,NA,correct,5,verb_focus,Hanako said: Howard didn't <strong>MUMBLE</strong> that Alex bought a birthday cake.,3,The way Howard said that Alex bought a birthday cake.,4944,backgroundedness,31,mumble,,
189,condition1,0.42,NA,5,embed_focus,Hanako said: Chandler didn't moan that Tia brought her <strong>PARENTS</strong>.,12,NA,4197,acceptability,32,moan,,
189,condition1,NA,correct,5,filler_good_1,Hanako said: Hannah didn't say that George emailed the <strong>STUDENTS</strong>.,101,"Who George emailed, according to Hannah.",5951,backgroundedness,33,say,,
189,condition1,0.82,NA,5,filler_good_2,Hanako said: <strong>MATTHEW</strong> didn't hope that Dana brought a gift.,108,NA,3651,acceptability,34,hope,,
189,condition1,0.31,NA,5,filler_bad_1,Hanako said: Tim didn't suspect that Liz and <strong>JASON</strong> drank the beer. ,115,NA,6033,acceptability,35,suspect,,
189,condition1,NA,correct,5,filler_bad_2,Hanako said: Rui didn't imply that <strong>CAROL</strong>'s brother signed the contract.,119,"Whose brother signed the contract, according to Rui.",3615,backgroundedness,36,imply,,
200,condition1,0.99,NA,practice,practice_acceptability_good_1,Hanako said: Fiona didn't buy <strong>PINEAPPLES</strong>.,201,,,acceptability,0,NA,0,
200,condition1,NA,correct,practice,practice_bg_good_2,Hanako said: Vera didn't <strong>DRIVE</strong> to Michigan.,202,How Vera travelled to Michigan.,,backgroundedness,0,NA,,
200,condition1,0.17,NA,practice,practice_accpetability_bad_2,Hanako said: Prisha doesn't speak <strong>KOREAN</strong>.,204,,,acceptability,0,NA,0,
200,condition1,NA,incorrect,practice,practice_bg_bad_1,Hanako said: Hank didn't buy the <strong>RED</strong> car.,203,Who bought the red car.,,backgroundedness,0,NA,,
200,condition1,NA,correct,0,filler_bad_2,Hanako said: Rui didn't imply that <strong>CAROL</strong>'s brother signed the contract.,119,"Whose brother signed the contract, according to Rui.",32926,backgroundedness,1,imply,,
200,condition1,NA,correct,0,filler_good_2,Hanako said: <strong>MATTHEW</strong> didn't hope that Dana brought a gift.,108,Who hoped that Dana brought a gift.,15675,backgroundedness,2,hope,,
200,condition1,0.92,NA,0,verb_focus,Hanako said: Fatima didn't <strong>MURMUR</strong> that Omar had dinner with his manager.,10,NA,12542,acceptability,3,murmur,,
200,condition1,0.33,NA,0,filler_bad_1,Hanako said: Ben didn't expect that Judith and <strong>LAURA</strong> would order pizza.,118,NA,25396,acceptability,4,expect,,
200,condition1,0.85,NA,0,embed_focus,Hanako said: Amy didn't scream that Charlie saw the <strong>ROBBER</strong>.,6,NA,12185,acceptability,5,scream,,
200,condition1,NA,correct,0,filler_good_1,Hanako said: Hannah didn't say that George emailed the <strong>STUDENTS</strong>.,101,"Who George emailed, according to Hannah.",17609,backgroundedness,6,say,,
200,condition1,0.95,NA,1,verb_focus,Hanako said: Yash didn't <strong>WHINE</strong> that Ming forgot her phone.,9,NA,10454,acceptability,7,whine,,
200,condition1,NA,correct,1,filler_good_1,Hanako said: Nancy didn't suspect that Julian ate the <strong> CUPCAKE</strong>.,103,"What Julian ate, according to Nancy.",11782,backgroundedness,8,suspect,,
200,condition1,0.73,NA,1,filler_bad_2,Hanako said: Donald didn't reveal that <strong>KRISHNA</strong>'s parents were moving to Texas.,123,NA,30154,acceptability,9,reveal,,
200,condition1,NA,correct,1,embed_focus,Hanako said: Jake didn't yell that Yumi found the <strong>WALLET</strong>.,7,"What Yumi found, according to Jake.",9483,backgroundedness,10,yell,,
200,condition1,0.45,NA,1,filler_bad_1,Hanako said: Tim didn't suspect that Liz and <strong>JASON</strong> drank the beer. ,115,NA,10608,acceptability,11,suspect,,
200,condition1,NA,correct,1,filler_good_2,Hanako said: <strong>SALLY</strong> didn't expect that Tony would visit George.,112,Who expected that Tony would visit George.,13372,backgroundedness,12,expect,,
200,condition1,NA,correct,2,embed_focus,Hanako said: Laura didn't mutter that Brandon broke his <strong>LAPTOP</strong>.,4,"What Brandon broke, according to Laura.",8749,backgroundedness,13,mutter,,
200,condition1,0.87,NA,2,filler_good_2,Hanako said: <strong>JULIAN</strong> didn't guess that Charlie received a message.,110,NA,10756,acceptability,14,guess,,
200,condition1,NA,incorrect,2,filler_bad_2,Hanako said: Jamal didn't expect that the book about <strong>ASTRONOMY</strong> was on the shelf.,124,"Where the book about astronomy was, according to Jamal.",16490,backgroundedness,15,expect,,
200,condition1,0.83,NA,2,filler_good_1,Hanako said: Danny didn't believe that Jennifer got a <strong>CAT</strong>.,105,NA,9659,acceptability,16,believe,,
200,condition1,0.58,NA,2,verb_focus,Hanako said: Igor didn't <strong>SHRIEK</strong> that Penny won the lottery.,11,NA,15587,acceptability,17,shriek,,
200,condition1,NA,correct,2,filler_bad_1,Hanako said: Larry didn't believe that Karl and <strong>NICK</strong> cooked dinner.,117,"Who else cooked dinner other than Karl, according to Larry.",27477,backgroundedness,18,believe,,
200,condition1,0.82,NA,3,embed_focus,Hanako said: Bill didn't shout that Dan knew the <strong>PROFESSOR</strong>.,5,NA,14817,acceptability,19,shout,,
200,condition1,NA,correct,3,filler_good_2,Hanako said: <strong>RONALD</strong> didn't imply that Jacy rented the truck.,107,Who implied that Jacy rented the truck.,8678,backgroundedness,20,imply,,
200,condition1,0.4,NA,3,verb_focus,Hanako said: Ashley didn't <strong>GROAN</strong> that Hasan talked to the detectives.,8,NA,17477,acceptability,21,groan,,
200,condition1,0.96,NA,3,filler_good_1,Hanako said: Charlie didn't expect that Maddie would call her <strong>ROOMMATE</strong>.,106,NA,11188,acceptability,22,expect,,
200,condition1,NA,correct,3,filler_bad_1,Hanako said: Tony didn't suggest that Frank and <strong>LISA</strong> was in the office.,116,"Who else was in the office other than Frank, according to Tony.",10233,backgroundedness,23,suggest,,
200,condition1,NA,correct,3,filler_bad_2,Hanako said: Ted didn't insist that <strong>EVA</strong>'s uncle should stay for dinner. ,121,"Whose uncle should stay for dinner, according to Ted.",19135,backgroundedness,24,insist,,
200,condition1,0.43,NA,4,filler_bad_2,Hanako said: Jessie didn't guess that the assistant to the <strong>DIRECTOR</strong> would give the presentation.,122,NA,13750,acceptability,25,guess,,
200,condition1,0.23,NA,4,filler_bad_1,Hanako said: Helen didn't think that Rob and <strong>MARC</strong> cut the bread. ,114,NA,14467,acceptability,26,think,,
200,condition1,NA,correct,4,filler_good_2,Hanako said: <strong>KATE</strong> didn't insist that Zack broke the plates.,109,Who insisted that Zack broke the plates.,7518,backgroundedness,27,insist,,
200,condition1,0.6,NA,4,verb_focus,Hanako said: Howard didn't <strong>MUMBLE</strong> that Alex bought a birthday cake.,3,NA,8904,acceptability,28,mumble,,
200,condition1,NA,correct,4,embed_focus,Hanako said: Chandler didn't moan that Tia brought her <strong>PARENTS</strong>.,12,"Who Tia brought, according to Chandler.",10044,backgroundedness,29,moan,,
200,condition1,NA,correct,4,filler_good_1,Hanako said: Ollie didn't think that Doug would invite the <strong>MAYOR</strong>.,102,"Who Doug would invite, according to Ollie.",8278,backgroundedness,30,think,,
200,condition1,NA,correct,5,verb_focus,Hanako said: Emma didn't <strong>STAMMER</strong> that Kevin lost the keys.,2,The way Emma said that Kevin lost the keys.,6990,backgroundedness,31,stammer,,
200,condition1,NA,correct,5,filler_bad_2,Hanako said: Frankie didn't hope that the agent of the <strong>GUITARIST</strong> would show up. ,120,"Whose agent would show up, according to Frankie.",11960,backgroundedness,32,hope,,
200,condition1,0.79,NA,5,filler_good_1,Hanako said: Grace didn't sugguest that Karen wrote a <strong>BOOK</strong>.,104,NA,7154,acceptability,33,suggest,,
200,condition1,0.92,NA,5,filler_good_2,Hanako said: <strong>JESS</strong> didn't reveal that Todd went out with Betty.,111,NA,7125,acceptability,34,reveal,,
200,condition1,NA,correct,5,filler_bad_1,Hanako said: Emily didn't say that Kevin and <strong>PAUL</strong> drafted the letter.,113,"Who else drafted the letter other than Kevin, according to Emily.",15644,backgroundedness,35,say,,
200,condition1,0.67,NA,5,embed_focus,Hanako said: John didn't whisper that Mary met with the <strong>LAWYER</strong>.,1,NA,10545,acceptability,36,whisper,,
122,condition1,0.98,NA,practice,practice_acceptability_good_1,Hanako said: Fiona didn't buy <strong>PINEAPPLES</strong>.,201,,,acceptability,0,NA,0,
122,condition1,NA,correct,practice,practice_bg_good_2,Hanako said: Vera didn't <strong>DRIVE</strong> to Michigan.,202,How Vera travelled to Michigan.,,backgroundedness,0,NA,,
122,condition1,0,NA,practice,practice_accpetability_bad_2,Hanako said: Prisha doesn't speak <strong>KOREAN</strong>.,204,,,acceptability,0,NA,0,
122,condition1,NA,correct,practice,practice_bg_bad_1,Hanako said: Hank didn't buy the <strong>RED</strong> car.,203,Which car Hank bought.,,backgroundedness,0,NA,,
122,condition1,NA,correct,0,embed_focus,Hanako said: John didn't whisper that Mary met with the <strong>LAWYER</strong>.,1,"Who Mary met with, according to John.",31439,backgroundedness,1,whisper,,
122,condition1,0.05,NA,0,filler_bad_2,Hanako said: Jessie didn't guess that the assistant to the <strong>DIRECTOR</strong> would give the presentation.,122,NA,21985,acceptability,2,guess,,
122,condition1,NA,incorrect,0,filler_good_2,Hanako said: <strong>KATE</strong> didn't insist that Zack broke the plates.,109,"What Zack broke, according to Kate.",28297,backgroundedness,3,insist,,
122,condition1,0.05,NA,0,filler_bad_1,Hanako said: Larry didn't believe that Karl and <strong>NICK</strong> cooked dinner.,117,NA,18557,acceptability,4,believe,,
122,condition1,1,NA,0,filler_good_1,Hanako said: Danny didn't believe that Jennifer got a <strong>CAT</strong>.,105,NA,11761,acceptability,5,believe,,
122,condition1,NA,correct,0,verb_focus,Hanako said: Yash didn't <strong>WHINE</strong> that Ming forgot her phone.,9,The way Yash said that Ming forgot her phone.,19415,backgroundedness,6,whine,,
122,condition1,1,NA,1,filler_good_1,Hanako said: Ollie didn't think that Doug would invite the <strong>MAYOR</strong>.,102,NA,10118,acceptability,7,think,,
122,condition1,NA,incorrect,1,filler_bad_2,Hanako said: Ted didn't insist that <strong>EVA</strong>'s uncle should stay for dinner. ,121,"What Eva's uncle should do, according to Ted.",16485,backgroundedness,8,insist,,
122,condition1,NA,incorrect,1,filler_good_2,Hanako said: <strong>RONALD</strong> didn't imply that Jacy rented the truck.,107,"What Jacy rented, according to Ronald.",20673,backgroundedness,9,imply,,
122,condition1,NA,incorrect,1,filler_bad_1,Hanako said: Tony didn't suggest that Frank and <strong>LISA</strong> was in the office.,116,Who suggested that Frank and Lisa was in the office.,11879,backgroundedness,10,suggest,,
122,condition1,0.52,NA,1,verb_focus,Hanako said: Laura didn't <strong>MUTTER</strong> that Brandon broke his laptop.,4,NA,15642,acceptability,11,mutter,,
122,condition1,0.56,NA,1,embed_focus,Hanako said: Chandler didn't moan that Tia brought her <strong>PARENTS</strong>.,12,NA,15418,acceptability,12,moan,,
122,condition1,0.27,NA,2,filler_bad_1,Hanako said: Emily didn't say that Kevin and <strong>PAUL</strong> drafted the letter.,113,NA,12940,acceptability,13,say,,
122,condition1,0.59,NA,2,verb_focus,Hanako said: Igor didn't <strong>SHRIEK</strong> that Penny won the lottery.,11,NA,9998,acceptability,14,shriek,,
122,condition1,NA,incorrect,2,embed_focus,Hanako said: Fatima didn't murmur that Omar had dinner with his <strong>MANAGER</strong>.,10,The way Fatima said that Omar had dinner with his manager.,15951,backgroundedness,15,murmur,,
122,condition1,0,NA,2,filler_bad_2,Hanako said: Frankie didn't hope that the agent of the <strong>GUITARIST</strong> would show up. ,120,NA,16011,acceptability,16,hope,,
122,condition1,NA,incorrect,2,filler_good_2,Hanako said: <strong>MATTHEW</strong> didn't hope that Dana brought a gift.,108,"What Dana brought, according to Matthew.",26173,backgroundedness,17,hope,,
122,condition1,NA,incorrect,2,filler_good_1,Hanako said: Nancy didn't suspect that Julian ate the <strong> CUPCAKE</strong>.,103,"Who ate the cupcake, according to Nancy.",10838,backgroundedness,18,suspect,,
122,condition1,NA,incorrect,3,filler_bad_1,Hanako said: Ben didn't expect that Judith and <strong>LAURA</strong> would order pizza.,118,Who expected that Judith and Laura would order pizza.,14498,backgroundedness,19,expect,,
122,condition1,0.96,NA,3,embed_focus,Hanako said: Amy didn't scream that Charlie saw the <strong>ROBBER</strong>.,6,NA,11591,acceptability,20,scream,,
122,condition1,0,NA,3,filler_bad_2,Hanako said: Rui didn't imply that <strong>CAROL</strong>'s brother signed the contract.,119,NA,7427,acceptability,21,imply,,
122,condition1,NA,incorrect,3,filler_good_2,Hanako said: <strong>JULIAN</strong> didn't guess that Charlie received a message.,110,"What Charlie received, according to Julian.",10680,backgroundedness,22,guess,,
122,condition1,1,NA,3,filler_good_1,Hanako said: Hannah didn't say that George emailed the <strong>STUDENTS</strong>.,101,NA,10972,acceptability,23,say,,
122,condition1,NA,correct,3,verb_focus,Hanako said: Emma didn't <strong>STAMMER</strong> that Kevin lost the keys.,2,The way Emma said that Kevin lost the keys.,15565,backgroundedness,24,stammer,,
122,condition1,1,NA,4,filler_good_1,Hanako said: Grace didn't sugguest that Karen wrote a <strong>BOOK</strong>.,104,NA,7262,acceptability,25,suggest,,
122,condition1,0,NA,4,filler_bad_1,Hanako said: Helen didn't think that Rob and <strong>MARC</strong> cut the bread. ,114,NA,8579,acceptability,26,think,,
122,condition1,NA,incorrect,4,filler_good_2,Hanako said: <strong>JESS</strong> didn't reveal that Todd went out with Betty.,111,"Who Todd went out with, according to Jess.",14037,backgroundedness,27,reveal,,
122,condition1,0.52,NA,4,verb_focus,Hanako said: Ashley didn't <strong>GROAN</strong> that Hasan talked to the detectives.,8,NA,10972,acceptability,28,groan,,
122,condition1,NA,incorrect,4,embed_focus,Hanako said: Bill didn't shout that Dan knew the <strong>PROFESSOR</strong>.,5,The way Bill said that Dan knew the professor.,11842,backgroundedness,29,shout,,
122,condition1,NA,incorrect,4,filler_bad_2,Hanako said: Donald didn't reveal that <strong>KRISHNA</strong>'s parents were moving to Texas.,123,"Where Krishna's parents were moving to, according to Donald.",10078,backgroundedness,30,reveal,,
122,condition1,0.25,NA,5,filler_bad_2,Hanako said: Jamal didn't expect that the book about <strong>ASTRONOMY</strong> was on the shelf.,124,NA,14249,acceptability,31,expect,,
122,condition1,0.45,NA,5,embed_focus,Hanako said: Howard didn't mumble that Alex bought a <strong>BIRTHDAY CAKE</strong>.,3,NA,10043,acceptability,32,mumble,,
122,condition1,NA,correct,5,verb_focus,Hanako said: Jake didn't <strong>YELL</strong> that Yumi found the wallet.,7,The way Jake said that Yumi found the wallet.,18414,backgroundedness,33,yell,,
122,condition1,NA,correct,5,filler_bad_1,Hanako said: Tim didn't suspect that Liz and <strong>JASON</strong> drank the beer. ,115,"Who else drank the beer other than Liz, according to Tim.",15777,backgroundedness,34,suspect,,
122,condition1,0.98,NA,5,filler_good_1,Hanako said: Charlie didn't expect that Maddie would call her <strong>ROOMMATE</strong>.,106,NA,10985,acceptability,35,expect,,
122,condition1,NA,incorrect,5,filler_good_2,Hanako said: <strong>SALLY</strong> didn't expect that Tony would visit George.,112,"Who Tony would visit, according to Sally.",8129,backgroundedness,36,expect,,
163,condition1,1,NA,practice,practice_acceptability_good_1,Hanako said: Fiona didn't buy <strong>PINEAPPLES</strong>.,201,,,acceptability,0,NA,0,
163,condition1,NA,correct,practice,practice_bg_good_2,Hanako said: Vera didn't <strong>DRIVE</strong> to Michigan.,202,How Vera travelled to Michigan.,,backgroundedness,0,NA,,
163,condition1,0,NA,practice,practice_accpetability_bad_2,Hanako said: Prisha doesn't speak <strong>KOREAN</strong>.,204,,,acceptability,0,NA,0,
163,condition1,NA,correct,practice,practice_bg_bad_1,Hanako said: Hank didn't buy the <strong>RED</strong> car.,203,Which car Hank bought.,,backgroundedness,0,NA,,
163,condition1,0.06,NA,0,filler_bad_1,Hanako said: Larry didn't believe that Karl and <strong>NICK</strong> cooked dinner.,117,NA,26036,acceptability,1,believe,,
163,condition1,0,NA,0,filler_bad_2,Hanako said: Jessie didn't guess that the assistant to the <strong>DIRECTOR</strong> would give the presentation.,122,NA,28081,acceptability,2,guess,,
163,condition1,NA,correct,0,embed_focus,Hanako said: John didn't whisper that Mary met with the <strong>LAWYER</strong>.,1,"Who Mary met with, according to John.",22876,backgroundedness,3,whisper,,
163,condition1,NA,correct,0,filler_good_1,Hanako said: Hannah didn't say that George emailed the <strong>STUDENTS</strong>.,101,"Who George emailed, according to Hannah.",11741,backgroundedness,4,say,,
163,condition1,NA,correct,0,filler_good_2,Hanako said: <strong>KATE</strong> didn't insist that Zack broke the plates.,109,Who insisted that Zack broke the plates.,8954,backgroundedness,5,insist,,
163,condition1,0.57,NA,0,verb_focus,Hanako said: Chandler didn't <strong>MOAN</strong> that Tia brought her parents.,12,NA,27371,acceptability,6,moan,,
163,condition1,NA,correct,1,filler_good_2,Hanako said: <strong>JESS</strong> didn't reveal that Todd went out with Betty.,111,Who revealed that Todd went out with Betty.,11115,backgroundedness,7,reveal,,
163,condition1,NA,correct,1,filler_bad_2,Hanako said: Frankie didn't hope that the agent of the <strong>GUITARIST</strong> would show up. ,120,"Whose agent would show up, according to Frankie.",16340,backgroundedness,8,hope,,
163,condition1,NA,correct,1,embed_focus,Hanako said: Amy didn't scream that Charlie saw the <strong>ROBBER</strong>.,6,"Who Charlie saw, according to Amy.",19397,backgroundedness,9,scream,,
163,condition1,0.57,NA,1,verb_focus,Hanako said: Laura didn't <strong>MUTTER</strong> that Brandon broke his laptop.,4,NA,11843,acceptability,10,mutter,,
163,condition1,1,NA,1,filler_good_1,Hanako said: Grace didn't sugguest that Karen wrote a <strong>BOOK</strong>.,104,NA,13095,acceptability,11,suggest,,
163,condition1,0.05,NA,1,filler_bad_1,Hanako said: Tim didn't suspect that Liz and <strong>JASON</strong> drank the beer. ,115,NA,14410,acceptability,12,suspect,,
163,condition1,0.05,NA,2,filler_bad_1,Hanako said: Helen didn't think that Rob and <strong>MARC</strong> cut the bread. ,114,NA,10834,acceptability,13,think,,
163,condition1,0.31,NA,2,filler_bad_2,Hanako said: Ted didn't insist that <strong>EVA</strong>'s uncle should stay for dinner. ,121,NA,14137,acceptability,14,insist,,
163,condition1,0.57,NA,2,verb_focus,Hanako said: Howard didn't <strong>MUMBLE</strong> that Alex bought a birthday cake.,3,NA,13907,acceptability,15,mumble,,
163,condition1,NA,correct,2,filler_good_2,Hanako said: <strong>RONALD</strong> didn't imply that Jacy rented the truck.,107,Who implied that Jacy rented the truck.,16918,backgroundedness,16,imply,,
163,condition1,NA,correct,2,filler_good_1,Hanako said: Charlie didn't expect that Maddie would call her <strong>ROOMMATE</strong>.,106,"Who Maddie would call, according to Charlie.",14264,backgroundedness,17,expect,,
163,condition1,NA,correct,2,embed_focus,Hanako said: Bill didn't shout that Dan knew the <strong>PROFESSOR</strong>.,5,"Who Dan knew, according to Bill.",7161,backgroundedness,18,shout,,
163,condition1,1,NA,3,filler_good_2,Hanako said: <strong>JULIAN</strong> didn't guess that Charlie received a message.,110,NA,7110,acceptability,19,guess,,
163,condition1,NA,correct,3,embed_focus,Hanako said: Ashley didn't groan that Hasan talked to the <strong>DETECTIVES</strong>.,8,"Who Hasan talked to, according to Ashley.",10748,backgroundedness,20,groan,,
163,condition1,0.37,NA,3,filler_bad_2,Hanako said: Jamal didn't expect that the book about <strong>ASTRONOMY</strong> was on the shelf.,124,NA,15057,acceptability,21,expect,,
163,condition1,0.44,NA,3,verb_focus,Hanako said: Yash didn't <strong>WHINE</strong> that Ming forgot her phone.,9,NA,10595,acceptability,22,whine,,
163,condition1,NA,correct,3,filler_bad_1,Hanako said: Tony didn't suggest that Frank and <strong>LISA</strong> was in the office.,116,"Who else was in the office other than Frank, according to Tony.",18372,backgroundedness,23,suggest,,
163,condition1,NA,correct,3,filler_good_1,Hanako said: Nancy didn't suspect that Julian ate the <strong> CUPCAKE</strong>.,103,"What Julian ate, according to Nancy.",7690,backgroundedness,24,suspect,,
163,condition1,NA,correct,4,filler_good_2,Hanako said: <strong>MATTHEW</strong> didn't hope that Dana brought a gift.,108,Who hoped that Dana brought a gift.,8182,backgroundedness,25,hope,,
163,condition1,0.39,NA,4,filler_bad_1,Hanako said: Ben didn't expect that Judith and <strong>LAURA</strong> would order pizza.,118,NA,10833,acceptability,26,expect,,
163,condition1,1,NA,4,embed_focus,Hanako said: Igor didn't shriek that Penny won the <strong>LOTTERY</strong>.,11,NA,6465,acceptability,27,shriek,,
163,condition1,NA,correct,4,filler_good_1,Hanako said: Danny didn't believe that Jennifer got a <strong>CAT</strong>.,105,"What Jennifer got, according to Danny.",7590,backgroundedness,28,believe,,
163,condition1,0.58,NA,4,verb_focus,Hanako said: Jake didn't <strong>YELL</strong> that Yumi found the wallet.,7,NA,10533,acceptability,29,yell,,
163,condition1,NA,correct,4,filler_bad_2,Hanako said: Rui didn't imply that <strong>CAROL</strong>'s brother signed the contract.,119,"Whose brother signed the contract, according to Rui.",6749,backgroundedness,30,imply,,
163,condition1,NA,correct,5,filler_good_1,Hanako said: Ollie didn't think that Doug would invite the <strong>MAYOR</strong>.,102,"Who Doug would invite, according to Ollie.",5921,backgroundedness,31,think,,
163,condition1,NA,correct,5,embed_focus,Hanako said: Fatima didn't murmur that Omar had dinner with his <strong>MANAGER</strong>.,10,"Who Omar had dinner with, according to Fatima.",9536,backgroundedness,32,murmur,,
163,condition1,1,NA,5,filler_good_2,Hanako said: <strong>SALLY</strong> didn't expect that Tony would visit George.,112,NA,7649,acceptability,33,expect,,
163,condition1,0.27,NA,5,filler_bad_1,Hanako said: Emily didn't say that Kevin and <strong>PAUL</strong> drafted the letter.,113,NA,10719,acceptability,34,say,,
163,condition1,NA,correct,5,verb_focus,Hanako said: Emma didn't <strong>STAMMER</strong> that Kevin lost the keys.,2,The way Emma said that Kevin lost the keys.,8626,backgroundedness,35,stammer,,
163,condition1,0.54,NA,5,filler_bad_2,Hanako said: Donald didn't reveal that <strong>KRISHNA</strong>'s parents were moving to Texas.,123,NA,19867,acceptability,36,reveal,,
157,condition1,1,NA,practice,practice_acceptability_good_1,Hanako said: Fiona didn't buy <strong>PINEAPPLES</strong>.,201,,,acceptability,0,NA,0,
157,condition1,NA,correct,practice,practice_bg_good_2,Hanako said: Vera didn't <strong>DRIVE</strong> to Michigan.,202,How Vera travelled to Michigan.,,backgroundedness,0,NA,,
157,condition1,0,NA,practice,practice_accpetability_bad_2,Hanako said: Prisha doesn't speak <strong>KOREAN</strong>.,204,,,acceptability,0,NA,0,
157,condition1,NA,correct,practice,practice_bg_bad_1,Hanako said: Hank didn't buy the <strong>RED</strong> car.,203,Which car Hank bought.,,backgroundedness,0,NA,,
157,condition1,0.01,NA,0,filler_bad_1,Hanako said: Emily didn't say that Kevin and <strong>PAUL</strong> drafted the letter.,113,NA,13332,acceptability,1,say,,
157,condition1,0.72,NA,0,filler_bad_2,Hanako said: Rui didn't imply that <strong>CAROL</strong>'s brother signed the contract.,119,NA,17047,acceptability,2,imply,,
157,condition1,NA,correct,0,filler_good_2,Hanako said: <strong>JULIAN</strong> didn't guess that Charlie received a message.,110,Who guessed that Charlie received a message.,15101,backgroundedness,3,guess,,
157,condition1,NA,correct,0,filler_good_1,Hanako said: Hannah didn't say that George emailed the <strong>STUDENTS</strong>.,101,"Who George emailed, according to Hannah.",15599,backgroundedness,4,say,,
157,condition1,0.94,NA,0,embed_focus,Hanako said: Chandler didn't moan that Tia brought her <strong>PARENTS</strong>.,12,NA,11399,acceptability,5,moan,,
157,condition1,NA,incorrect,0,verb_focus,Hanako said: Igor didn't <strong>SHRIEK</strong> that Penny won the lottery.,11,"What Penny won, according to Igor.",21151,backgroundedness,6,shriek,,
157,condition1,0.01,NA,1,filler_bad_1,Hanako said: Ben didn't expect that Judith and <strong>LAURA</strong> would order pizza.,118,NA,16799,acceptability,7,expect,,
157,condition1,0.96,NA,1,filler_good_1,Hanako said: Grace didn't sugguest that Karen wrote a <strong>BOOK</strong>.,104,NA,14302,acceptability,8,suggest,,
157,condition1,NA,correct,1,verb_focus,Hanako said: John didn't <strong>WHISPER</strong> that Mary met with the lawyer.,1,The way John said that Mary met with the lawyer.,21567,backgroundedness,9,whisper,,
157,condition1,0.99,NA,1,filler_good_2,Hanako said: <strong>KATE</strong> didn't insist that Zack broke the plates.,109,NA,9660,acceptability,10,insist,,
157,condition1,NA,correct,1,embed_focus,Hanako said: Laura didn't mutter that Brandon broke his <strong>LAPTOP</strong>.,4,"What Brandon broke, according to Laura.",8021,backgroundedness,11,mutter,,
157,condition1,NA,correct,1,filler_bad_2,Hanako said: Jamal didn't expect that the book about <strong>ASTRONOMY</strong> was on the shelf.,124,"Which book was on the shelf, according to Jamal.",16112,backgroundedness,12,expect,,
157,condition1,NA,correct,2,filler_good_2,Hanako said: <strong>SALLY</strong> didn't expect that Tony would visit George.,112,Who expected that Tony would visit George.,12685,backgroundedness,13,expect,,
157,condition1,NA,correct,2,filler_good_1,Hanako said: Nancy didn't suspect that Julian ate the <strong> CUPCAKE</strong>.,103,"What Julian ate, according to Nancy.",7986,backgroundedness,14,suspect,,
157,condition1,0.42,NA,2,filler_bad_2,Hanako said: Donald didn't reveal that <strong>KRISHNA</strong>'s parents were moving to Texas.,123,NA,14566,acceptability,15,reveal,,
157,condition1,0.55,NA,2,verb_focus,Hanako said: Yash didn't <strong>WHINE</strong> that Ming forgot her phone.,9,NA,10916,acceptability,16,whine,,
157,condition1,NA,correct,2,filler_bad_1,Hanako said: Tony didn't suggest that Frank and <strong>LISA</strong> was in the office.,116,"Who else was in the office other than Frank, according to Tony.",17196,backgroundedness,17,suggest,,
157,condition1,0.99,NA,2,embed_focus,Hanako said: Fatima didn't murmur that Omar had dinner with his <strong>MANAGER</strong>.,10,NA,10418,acceptability,18,murmur,,
157,condition1,0.01,NA,3,filler_bad_1,Hanako said: Larry didn't believe that Karl and <strong>NICK</strong> cooked dinner.,117,NA,9662,acceptability,19,believe,,
157,condition1,NA,correct,3,filler_bad_2,Hanako said: Jessie didn't guess that the assistant to the <strong>DIRECTOR</strong> would give the presentation.,122,"Whose assistant would give the presentation, according to Jessie.",15171,backgroundedness,20,guess,,
157,condition1,NA,correct,3,embed_focus,Hanako said: Jake didn't yell that Yumi found the <strong>WALLET</strong>.,7,"What Yumi found, according to Jake.",7899,backgroundedness,21,yell,,
157,condition1,NA,correct,3,filler_good_1,Hanako said: Ollie didn't think that Doug would invite the <strong>MAYOR</strong>.,102,"Who Doug would invite, according to Ollie.",5729,backgroundedness,22,think,,
157,condition1,0.99,NA,3,filler_good_2,Hanako said: <strong>MATTHEW</strong> didn't hope that Dana brought a gift.,108,NA,10183,acceptability,23,hope,,
157,condition1,0.52,NA,3,verb_focus,Hanako said: Emma didn't <strong>STAMMER</strong> that Kevin lost the keys.,2,NA,10171,acceptability,24,stammer,,
157,condition1,NA,correct,4,embed_focus,Hanako said: Howard didn't mumble that Alex bought a <strong>BIRTHDAY CAKE</strong>.,3,"What Alex bought, according to Howard.",8584,backgroundedness,25,mumble,,
157,condition1,0.01,NA,4,filler_bad_1,Hanako said: Helen didn't think that Rob and <strong>MARC</strong> cut the bread. ,114,NA,12099,acceptability,26,think,,
157,condition1,NA,correct,4,filler_bad_2,Hanako said: Ted didn't insist that <strong>EVA</strong>'s uncle should stay for dinner. ,121,"Whose uncle should stay for dinner, according to Ted.",12335,backgroundedness,27,insist,,
157,condition1,NA,correct,4,filler_good_2,Hanako said: <strong>JESS</strong> didn't reveal that Todd went out with Betty.,111,Who revealed that Todd went out with Betty.,7811,backgroundedness,28,reveal,,
157,condition1,0.99,NA,4,filler_good_1,Hanako said: Danny didn't believe that Jennifer got a <strong>CAT</strong>.,105,NA,13788,acceptability,29,believe,,
157,condition1,0.47,NA,4,verb_focus,Hanako said: Amy didn't <strong>SCREAM</strong> that Charlie saw the robber.,6,NA,10349,acceptability,30,scream,,
157,condition1,NA,correct,5,filler_good_2,Hanako said: <strong>RONALD</strong> didn't imply that Jacy rented the truck.,107,Who implied that Jacy rented the truck.,12929,backgroundedness,31,imply,,
157,condition1,NA,correct,5,filler_bad_1,Hanako said: Tim didn't suspect that Liz and <strong>JASON</strong> drank the beer. ,115,"Who else drank the beer other than Liz, according to Tim.",9751,backgroundedness,32,suspect,,
157,condition1,NA,correct,5,filler_bad_2,Hanako said: Frankie didn't hope that the agent of the <strong>GUITARIST</strong> would show up. ,120,"Whose agent would show up, according to Frankie.",9304,backgroundedness,33,hope,,
157,condition1,0.45,NA,5,verb_focus,Hanako said: Bill didn't <strong>SHOUT</strong> that Dan knew the professor.,5,NA,6948,acceptability,34,shout,,
157,condition1,1,NA,5,filler_good_1,Hanako said: Charlie didn't expect that Maddie would call her <strong>ROOMMATE</strong>.,106,NA,9935,acceptability,35,expect,,
157,condition1,1,NA,5,embed_focus,Hanako said: Ashley didn't groan that Hasan talked to the <strong>DETECTIVES</strong>.,8,NA,10965,acceptability,36,groan,,
145,condition1,1,NA,practice,practice_acceptability_good_1,Hanako said: Fiona didn't buy <strong>PINEAPPLES</strong>.,201,,,acceptability,0,NA,0,
145,condition1,NA,correct,practice,practice_bg_good_2,Hanako said: Vera didn't <strong>DRIVE</strong> to Michigan.,202,How Vera travelled to Michigan.,,backgroundedness,0,NA,,
145,condition1,0,NA,practice,practice_accpetability_bad_2,Hanako said: Prisha doesn't speak <strong>KOREAN</strong>.,204,,,acceptability,0,NA,0,
145,condition1,NA,correct,practice,practice_bg_bad_1,Hanako said: Hank didn't buy the <strong>RED</strong> car.,203,Which car Hank bought.,,backgroundedness,0,NA,,
145,condition1,NA,correct,0,embed_focus,Hanako said: Amy didn't scream that Charlie saw the <strong>ROBBER</strong>.,6,"Who Charlie saw, according to Amy.",18313,backgroundedness,1,scream,,
145,condition1,1,NA,0,filler_good_1,Hanako said: Grace didn't sugguest that Karen wrote a <strong>BOOK</strong>.,104,NA,10714,acceptability,2,suggest,,
145,condition1,0,NA,0,filler_bad_2,Hanako said: Frankie didn't hope that the agent of the <strong>GUITARIST</strong> would show up. ,120,NA,16851,acceptability,3,hope,,
145,condition1,1,NA,0,filler_good_2,Hanako said: <strong>SALLY</strong> didn't expect that Tony would visit George.,112,NA,12264,acceptability,4,expect,,
145,condition1,NA,correct,0,verb_focus,Hanako said: Igor didn't <strong>SHRIEK</strong> that Penny won the lottery.,11,The way Igor said that Penny won the lottery.,19614,backgroundedness,5,shriek,,
145,condition1,NA,correct,0,filler_bad_1,Hanako said: Tim didn't suspect that Liz and <strong>JASON</strong> drank the beer. ,115,"Who else drank the beer other than Liz, according to Tim.",17428,backgroundedness,6,suspect,,
145,condition1,0.96,NA,1,embed_focus,Hanako said: Yash didn't whine that Ming forgot her <strong>PHONE</strong>.,9,NA,7964,acceptability,7,whine,,
145,condition1,NA,correct,1,filler_good_2,Hanako said: <strong>MATTHEW</strong> didn't hope that Dana brought a gift.,108,Who hoped that Dana brought a gift.,15831,backgroundedness,8,hope,,
145,condition1,NA,correct,1,filler_good_1,Hanako said: Ollie didn't think that Doug would invite the <strong>MAYOR</strong>.,102,"Who Doug would invite, according to Ollie.",25598,backgroundedness,9,think,,
145,condition1,NA,correct,1,verb_focus,Hanako said: Emma didn't <strong>STAMMER</strong> that Kevin lost the keys.,2,The way Emma said that Kevin lost the keys.,18377,backgroundedness,10,stammer,,
145,condition1,0.64,NA,1,filler_bad_2,Hanako said: Ted didn't insist that <strong>EVA</strong>'s uncle should stay for dinner. ,121,NA,10985,acceptability,11,insist,,
145,condition1,0.03,NA,1,filler_bad_1,Hanako said: Ben didn't expect that Judith and <strong>LAURA</strong> would order pizza.,118,NA,8402,acceptability,12,expect,,
145,condition1,0.99,NA,2,filler_good_2,Hanako said: <strong>JULIAN</strong> didn't guess that Charlie received a message.,110,NA,7407,acceptability,13,guess,,
145,condition1,NA,correct,2,embed_focus,Hanako said: Ashley didn't groan that Hasan talked to the <strong>DETECTIVES</strong>.,8,"Who Hasan talked to, according to Ashley.",13740,backgroundedness,14,groan,,
145,condition1,0.06,NA,2,filler_bad_1,Hanako said: Larry didn't believe that Karl and <strong>NICK</strong> cooked dinner.,117,NA,18078,acceptability,15,believe,,
145,condition1,0.7,NA,2,verb_focus,Hanako said: Howard didn't <strong>MUMBLE</strong> that Alex bought a birthday cake.,3,NA,15941,acceptability,16,mumble,,
145,condition1,NA,correct,2,filler_bad_2,Hanako said: Jessie didn't guess that the assistant to the <strong>DIRECTOR</strong> would give the presentation.,122,"Whose assistant would give the presentation, according to Jessie.",16037,backgroundedness,17,guess,,
145,condition1,NA,correct,2,filler_good_1,Hanako said: Nancy didn't suspect that Julian ate the <strong> CUPCAKE</strong>.,103,"What Julian ate, according to Nancy.",9288,backgroundedness,18,suspect,,
145,condition1,NA,correct,3,filler_bad_1,Hanako said: Emily didn't say that Kevin and <strong>PAUL</strong> drafted the letter.,113,"Who else drafted the letter other than Kevin, according to Emily.",10918,backgroundedness,19,say,,
145,condition1,0.97,NA,3,filler_good_1,Hanako said: Danny didn't believe that Jennifer got a <strong>CAT</strong>.,105,NA,9469,acceptability,20,believe,,
145,condition1,0.98,NA,3,filler_good_2,Hanako said: <strong>RONALD</strong> didn't imply that Jacy rented the truck.,107,NA,8323,acceptability,21,imply,,
145,condition1,0.65,NA,3,filler_bad_2,Hanako said: Rui didn't imply that <strong>CAROL</strong>'s brother signed the contract.,119,NA,10347,acceptability,22,imply,,
145,condition1,NA,correct,3,verb_focus,Hanako said: Bill didn't <strong>SHOUT</strong> that Dan knew the professor.,5,The way Bill said that Dan knew the professor.,10778,backgroundedness,23,shout,,
145,condition1,NA,correct,3,embed_focus,Hanako said: Fatima didn't murmur that Omar had dinner with his <strong>MANAGER</strong>.,10,"Who Omar had dinner with, according to Fatima.",13207,backgroundedness,24,murmur,,
145,condition1,0.07,NA,4,filler_bad_1,Hanako said: Tony didn't suggest that Frank and <strong>LISA</strong> was in the office.,116,NA,8483,acceptability,25,suggest,,
145,condition1,NA,correct,4,filler_bad_2,Hanako said: Jamal didn't expect that the book about <strong>ASTRONOMY</strong> was on the shelf.,124,"Which book was on the shelf, according to Jamal.",13377,backgroundedness,26,expect,,
145,condition1,NA,correct,4,filler_good_1,Hanako said: Charlie didn't expect that Maddie would call her <strong>ROOMMATE</strong>.,106,"Who Maddie would call, according to Charlie.",6881,backgroundedness,27,expect,,
145,condition1,0.98,NA,4,embed_focus,Hanako said: Chandler didn't moan that Tia brought her <strong>PARENTS</strong>.,12,NA,7716,acceptability,28,moan,,
145,condition1,0.8,NA,4,verb_focus,Hanako said: Jake didn't <strong>YELL</strong> that Yumi found the wallet.,7,NA,6597,acceptability,29,yell,,
145,condition1,NA,correct,4,filler_good_2,Hanako said: <strong>JESS</strong> didn't reveal that Todd went out with Betty.,111,Who revealed that Todd went out with Betty.,9119,backgroundedness,30,reveal,,
145,condition1,NA,correct,5,filler_bad_1,Hanako said: Helen didn't think that Rob and <strong>MARC</strong> cut the bread. ,114,"Who else cut the bread other than Rob, according to Helen.",9076,backgroundedness,31,think,,
145,condition1,0.56,NA,5,verb_focus,Hanako said: John didn't <strong>WHISPER</strong> that Mary met with the lawyer.,1,NA,8251,acceptability,32,whisper,,
145,condition1,0.48,NA,5,embed_focus,Hanako said: Laura didn't mutter that Brandon broke his <strong>LAPTOP</strong>.,4,NA,12015,acceptability,33,mutter,,
145,condition1,NA,correct,5,filler_bad_2,Hanako said: Donald didn't reveal that <strong>KRISHNA</strong>'s parents were moving to Texas.,123,"Whose parents were moving to Texas, according to Donald.",13743,backgroundedness,34,reveal,,
145,condition1,0.98,NA,5,filler_good_1,Hanako said: Hannah didn't say that George emailed the <strong>STUDENTS</strong>.,101,NA,9106,acceptability,35,say,,
145,condition1,NA,correct,5,filler_good_2,Hanako said: <strong>KATE</strong> didn't insist that Zack broke the plates.,109,Who insisted that Zack broke the plates.,13449,backgroundedness,36,insist,,
196,condition1,0.72,NA,practice,practice_acceptability_good_1,Hanako said: Fiona didn't buy <strong>PINEAPPLES</strong>.,201,,,acceptability,0,NA,0,
196,condition1,NA,correct,practice,practice_bg_good_2,Hanako said: Vera didn't <strong>DRIVE</strong> to Michigan.,202,How Vera travelled to Michigan.,,backgroundedness,0,NA,,
196,condition1,0,NA,practice,practice_accpetability_bad_2,Hanako said: Prisha doesn't speak <strong>KOREAN</strong>.,204,,,acceptability,0,NA,0,
196,condition1,NA,correct,practice,practice_bg_bad_1,Hanako said: Hank didn't buy the <strong>RED</strong> car.,203,Which car Hank bought.,,backgroundedness,0,NA,,
196,condition1,0.85,NA,0,filler_good_1,Hanako said: Ollie didn't think that Doug would invite the <strong>MAYOR</strong>.,102,NA,4959,acceptability,1,think,,
196,condition1,0.25,NA,0,verb_focus,Hanako said: Igor didn't <strong>SHRIEK</strong> that Penny won the lottery.,11,NA,4442,acceptability,2,shriek,,
196,condition1,NA,correct,0,filler_bad_2,Hanako said: Jessie didn't guess that the assistant to the <strong>DIRECTOR</strong> would give the presentation.,122,"Whose assistant would give the presentation, according to Jessie.",18497,backgroundedness,3,guess,,
196,condition1,NA,correct,0,filler_good_2,Hanako said: <strong>JULIAN</strong> didn't guess that Charlie received a message.,110,Who guessed that Charlie received a message.,9157,backgroundedness,4,guess,,
196,condition1,NA,correct,0,filler_bad_1,Hanako said: Larry didn't believe that Karl and <strong>NICK</strong> cooked dinner.,117,"Who else cooked dinner other than Karl, according to Larry.",9116,backgroundedness,5,believe,,
196,condition1,0.59,NA,0,embed_focus,Hanako said: Bill didn't shout that Dan knew the <strong>PROFESSOR</strong>.,5,NA,6036,acceptability,6,shout,,
196,condition1,0.13,NA,1,filler_bad_2,Hanako said: Frankie didn't hope that the agent of the <strong>GUITARIST</strong> would show up. ,120,NA,4479,acceptability,7,hope,,
196,condition1,NA,correct,1,embed_focus,Hanako said: Fatima didn't murmur that Omar had dinner with his <strong>MANAGER</strong>.,10,"Who Omar had dinner with, according to Fatima.",8963,backgroundedness,8,murmur,,
196,condition1,0.13,NA,1,filler_bad_1,Hanako said: Tony didn't suggest that Frank and <strong>LISA</strong> was in the office.,116,NA,8645,acceptability,9,suggest,,
196,condition1,NA,correct,1,verb_focus,Hanako said: Howard didn't <strong>MUMBLE</strong> that Alex bought a birthday cake.,3,The way Howard said that Alex bought a birthday cake.,6228,backgroundedness,10,mumble,,
196,condition1,NA,correct,1,filler_good_1,Hanako said: Nancy didn't suspect that Julian ate the <strong> CUPCAKE</strong>.,103,"What Julian ate, according to Nancy.",8574,backgroundedness,11,suspect,,
196,condition1,0.91,NA,1,filler_good_2,Hanako said: <strong>RONALD</strong> didn't imply that Jacy rented the truck.,107,NA,4594,acceptability,12,imply,,
196,condition1,NA,correct,2,filler_good_1,Hanako said: Hannah didn't say that George emailed the <strong>STUDENTS</strong>.,101,"Who George emailed, according to Hannah.",6229,backgroundedness,13,say,,
196,condition1,0.13,NA,2,filler_bad_2,Hanako said: Rui didn't imply that <strong>CAROL</strong>'s brother signed the contract.,119,NA,4324,acceptability,14,imply,,
196,condition1,NA,correct,2,filler_bad_1,Hanako said: Helen didn't think that Rob and <strong>MARC</strong> cut the bread. ,114,"Who else cut the bread other than Rob, according to Helen.",9795,backgroundedness,15,think,,
196,condition1,0.33,NA,2,verb_focus,Hanako said: Emma didn't <strong>STAMMER</strong> that Kevin lost the keys.,2,NA,3811,acceptability,16,stammer,,
196,condition1,NA,correct,2,embed_focus,Hanako said: Jake didn't yell that Yumi found the <strong>WALLET</strong>.,7,"What Yumi found, according to Jake.",8481,backgroundedness,17,yell,,
196,condition1,0.87,NA,2,filler_good_2,Hanako said: <strong>JESS</strong> didn't reveal that Todd went out with Betty.,111,NA,4502,acceptability,18,reveal,,
196,condition1,NA,correct,3,embed_focus,Hanako said: Amy didn't scream that Charlie saw the <strong>ROBBER</strong>.,6,"Who Charlie saw, according to Amy.",7032,backgroundedness,19,scream,,
196,condition1,0.6,NA,3,filler_good_2,Hanako said: <strong>SALLY</strong> didn't expect that Tony would visit George.,112,NA,14658,acceptability,20,expect,,
196,condition1,0.8,NA,3,filler_good_1,Hanako said: Charlie didn't expect that Maddie would call her <strong>ROOMMATE</strong>.,106,NA,5103,acceptability,21,expect,,
