workerid,proliferate.condition,acceptability_rating,bg_response,block_id,condition,context,item_id,original_bg_choice,rt,task,trial_num,verb,wrong_attempts,error
117,condition1,0.99,NA,practice,practice_acceptability_good_1,Hanako said: Fiona didn't buy pineapples.,201,,,acceptability,0,NA,0,
117,condition1,NA,incorrect,practice,practice_bg_good_2,<u>Hanako said: Vera didn't drive to Michigan.</u>,202,Where Vera drove to.,,backgroundedness,0,NA,,
117,condition1,0.1,NA,practice,practice_accpetability_bad_2,Hanako said: Prisha doesn't speak Korean.,204,,,acceptability,0,NA,2,
117,condition1,NA,correct,practice,practice_bg_bad_1,<u>Hanako said: Hank didn't buy the red car.</u>,203,Which car Hank bought.,,backgroundedness,0,NA,,
117,condition1,NA,verb,0,mos,<u>Hanako said: John didn't whisper that Mary met with the lawyer.</u>,1,The way John communicated that Mary met with the lawyer.,5655,backgroundedness,1,whisper,,
117,condition1,0.9,NA,0,filler_good,Hanako said: Julie didn't guess that Charlie received a message.,108,NA,2063,acceptability,2,guess,,
117,condition1,NA,verb,0,say,<u>Hanako said: Tim didn't say that Jason drank the beer. </u>,304,The way Tim communicated that Jason drank the beer.,3808,backgroundedness,3,say,,
117,condition1,0.91,NA,0,filler_bad,Hanako said: Amelia didn't suggest that Frank and Lisa were in the office.,117,NA,2247,acceptability,4,suggest,,
117,condition1,0.82,NA,1,filler_bad,Hanako said: Jessie didn't guess that the assistant to the director would give the presentation.,121,NA,2176,acceptability,5,guess,,
117,condition1,0.93,NA,1,say,Hanako said: Emily didn't say that Paul drafted the letter.,302,NA,42999,acceptability,6,say,,
117,condition1,NA,verb,1,mos,<u>Hanako said: Igor didn't shriek that Penny won the lottery.</u>,11,The way Igor communicated that Penny won the lottery.,2208,backgroundedness,7,shriek,,
117,condition1,NA,verb,1,filler_good,<u>Hanako said: Ronald didn't imply that Jacy rented the truck.</u>,106,"What Jacy rented, according to Ronald.",26527,backgroundedness,8,imply,,
117,condition1,NA,verb,2,mos,<u>Hanako said: Emma didn't stammer that Kevin lost the keys.</u>,2,The way Emma communicated that Kevin lost the keys.,81159,backgroundedness,9,stammer,,
117,condition1,0.94,NA,2,filler_good,Hanako said: Juliet didn't confirm that Sebastian would come to the party.,112,NA,2887,acceptability,10,confirm,,
117,condition1,NA,embed,2,filler_bad,<u>Hanako said: Donald didn't reveal that the parents of Krishna were moving to Texas. </u>,122,"Whose parents were moving to Texas, as Donald revealed.",2448,backgroundedness,11,reveal,,
117,condition1,0.81,NA,2,say,Hanako said: Hannah didn't say that George emailed the students.,301,NA,2719,acceptability,12,say,,
117,condition1,NA,embed,3,filler_good,<u>Hanako said: Matthew didn't hope that Dana brought a gift.</u>,107,Who hoped that Dana brought a gift.,3584,backgroundedness,13,hope,,
117,condition1,0.99,NA,3,say,Hanako said: Danny didn't say that Jennifer got a cat.,308,NA,1712,acceptability,14,say,,
117,condition1,0.93,NA,3,mos,Hanako said: Howard didn't mumble that Alex bought a birthday cake.,3,NA,4872,acceptability,15,mumble,,
117,condition1,NA,embed,3,filler_bad,<u>Hanako said: Rui didn't imply that Carol's brother signed the contract.</u>,119,"Whose brother signed the contract, according to Rui.",31879,backgroundedness,16,imply,,
117,condition1,0.81,NA,4,filler_bad,Hanako said: Frankie didn't hope that the agent of the guitarist would show up. ,120,NA,3208,acceptability,17,hope,,
117,condition1,0.89,NA,4,mos,Hanako said: Bill didn't shout that Dan knew the professor.,5,NA,7465,acceptability,18,shout,,
117,condition1,NA,verb,4,say,<u>Hanako said: Ben didn't say that Laura ordered pizza.</u>,307,The way Ben communicated that Laura ordered pizza.,2472,backgroundedness,19,say,,
117,condition1,NA,embed,4,filler_good,<u>Hanako said: Jess didn't reveal that Todd went out with Betty.</u>,109,Who revealed that Todd went out with Betty.,4895,backgroundedness,20,reveal,,
117,condition1,0.78,NA,5,say,Hanako said: Jessie didn't say that Michelle borrowed the computer.,310,NA,3575,acceptability,21,say,,
117,condition1,NA,embed,5,filler_good,<u>Hanako said: Selena didn't speculate that Justin would buy the house.</u>,105,"What Justin would buy, according to Selena.",3480,backgroundedness,22,spectulate,,
117,condition1,0.81,NA,5,filler_bad,Hanako said: Ben didn't expect that Judith and Eleanor would solve the puzzle.,116,NA,6264,acceptability,23,expect,,
117,condition1,NA,embed,5,mos,<u>Hanako said: Laura didn't mutter that Brandon broke his laptop.</u>,4,"What Brandon broke, according to Laura.",3568,backgroundedness,24,mutter,,
117,condition1,NA,verb,6,mos,<u>Hanako said: Chandler didn't moan that Tia brought her parents.</u>,12,The way Chandler communicated that Tia brought her parents.,3471,backgroundedness,25,moan,,
117,condition1,0.91,NA,6,say,Hanako said: Charlie didn't say that Maddie would call her roommate.,305,NA,2368,acceptability,26,say,,
117,condition1,NA,verb,6,filler_bad,<u>Hanako said: Michael didn't speculate that Robert and Eric would leave the team.</u>,118,Who spculated that Eric would leave the team.,2688,backgroundedness,27,spectulate,,
117,condition1,0.86,NA,6,filler_good,Hanako said: Ryan didn't expect that Leon heard the news.,111,NA,4096,acceptability,28,expect,,
117,condition1,NA,verb,7,filler_good,<u>Hanako said: Sebrina didn't suspect that James would cancel the trip.</u>,110,"Who would cancel the trip, according to Sebrina.",2448,backgroundedness,29,suspect,,
117,condition1,0.93,NA,7,mos,Hanako said: Ashley didn't groan that Hasan talked to the detectives.,8,NA,2103,acceptability,30,groan,,
117,condition1,NA,embed,7,filler_bad,<u>Hanako said: Ted didn't insist that Eva's uncle should stay for dinner.</u>,124,"Whose uncle should stay for dinner, as Tedd insisted.",3481,backgroundedness,31,insist,,
117,condition1,0.81,NA,7,say,Hanako said: Sally didn't say that Tony would visit George.,303,NA,1679,acceptability,32,say,,
117,condition1,0.83,NA,8,filler_bad,Hanako said: Jamal didn't expect that the book about astronomy was on the shelf.,123,NA,1872,acceptability,33,expect,,
117,condition1,0.98,NA,8,filler_good,Hanako said: Ollie didn't think that Doug would invite the mayor.,101,NA,1417,acceptability,34,think,,
117,condition1,NA,embed,8,mos,<u>Hanako said: Jake didn't yell that Yumi found the wallet.</u>,7,"What Yumi found, according to Jake.",4824,backgroundedness,35,yell,,
117,condition1,NA,embed,8,say,<u>Hanako said: Nancy didn't say that Julian ate the cupcake.</u>,309,"What Julian ate, according to Nancy.",3407,backgroundedness,36,say,,
117,condition1,0.99,NA,9,say,Hanako said: Noah didn't say that Sharon wanted a dog.,312,NA,1558,acceptability,37,say,,
117,condition1,NA,verb,9,filler_bad,<u>Hanako said: Tim didn't suspect that Liz and Jason drank the beer. </u>,114,Who suspected that Jason drank the beer.,7297,backgroundedness,38,suspect,,
117,condition1,NA,embed,9,mos,<u>Hanako said: Fatima didn't murmur that Omar had dinner with his manager.</u>,10,"Who Omar had dinner with, according to Fatima.",3446,backgroundedness,39,murmur,,
117,condition1,0.86,NA,9,filler_good,Hanako said: Jean didn't believe that Grant adopted a kitten.,103,NA,42744,acceptability,40,believe,,
117,condition1,0.97,NA,10,filler_good,Hanako said: Grace didn't suggest that Karen wrote a book.,102,NA,3321,acceptability,41,suggest,,
117,condition1,NA,embed,10,say,<u>Hanako said: Tom didn't say that Sarah admired her friend. </u>,311,"Who Sarah admired, according to Tom.",7104,backgroundedness,42,say,,
117,condition1,0.82,NA,10,mos,Hanako said: Yash didn't whine that Ming forgot her phone. ,9,NA,1775,acceptability,43,whine,,
117,condition1,NA,verb,10,filler_bad,<u>Hanako said: Helen didn't think that Rob and Marc cut the bread. </u>,113,Who thought that Marc cut the bread.,10655,backgroundedness,44,think,,
117,condition1,NA,embed,11,filler_bad,<u>Hanakko said: Larry didn't believe that Karl and Nick cooked dinner.</u>,115,"Who else cooked dinner other than Karl, according to Larry.",2976,backgroundedness,45,believe,,
117,condition1,0.88,NA,11,say,Hanako said: Kate didn't say that Zack broke the plates.,306,NA,2017,acceptability,46,say,,
117,condition1,NA,verb,11,mos,<u>Hanako said: Amy didn't scream that Charlie saw the robber.</u>,6,The way Amy communicated that Charlie saw the robber.,4168,backgroundedness,47,scream,,
117,condition1,0.92,NA,11,filler_good,Hanako said: Roger didn't expect that Andy would take the jacket.,104,NA,9639,acceptability,48,expect,,
108,condition1,0.85,NA,practice,practice_acceptability_good_1,Hanako said: Fiona didn't buy pineapples.,201,,,acceptability,0,NA,0,
108,condition1,NA,correct,practice,practice_bg_good_2,<u>Hanako said: Vera didn't drive to Michigan.</u>,202,How Vera travelled to Michigan.,,backgroundedness,0,NA,,
108,condition1,0,NA,practice,practice_accpetability_bad_2,Hanako said: Prisha doesn't speak Korean.,204,,,acceptability,0,NA,0,
108,condition1,NA,correct,practice,practice_bg_bad_1,<u>Hanako said: Hank didn't buy the red car.</u>,203,Which car Hank bought.,,backgroundedness,0,NA,,
108,condition1,NA,embed,0,say,<u>Hanako said: Hannah didn't say that George emailed the students.</u>,301,"Who George emailed, according to Hannah.",28209,backgroundedness,1,say,,
108,condition1,0.15,NA,0,filler_good,Hanako said: Jean didn't believe that Grant adopted a kitten.,103,NA,12461,acceptability,2,believe,,
108,condition1,NA,embed,0,mos,<u>Hanako said: Bill didn't shout that Dan knew the professor.</u>,5,"Who Dan knew, according to Bill.",23010,backgroundedness,3,shout,,
108,condition1,0.25,NA,0,filler_bad,Hanakko said: Larry didn't believe that Karl and Nick cooked dinner.,115,NA,8640,acceptability,4,believe,,
108,condition1,0.95,NA,1,filler_good,Hanako said: Matthew didn't hope that Dana brought a gift.,107,NA,9309,acceptability,5,hope,,
108,condition1,NA,embed,1,say,<u>Hanako said: Sally didn't say that Tony would visit George.</u>,303,"Who Tony would, according to Sally.",21189,backgroundedness,6,say,,
108,condition1,NA,embed,1,filler_bad,<u>Hanako said: Frankie didn't hope that the agent of the guitarist would show up. </u>,120,"Whose agent would show up, as Frankie hoped.",18751,backgroundedness,7,hope,,
108,condition1,0.72,NA,1,mos,Hanako said: Howard didn't mumble that Alex bought a birthday cake.,3,NA,11804,acceptability,8,mumble,,
108,condition1,1,NA,2,filler_good,Hanako said: Sebrina didn't suspect that James would cancel the trip.,110,NA,7587,acceptability,9,suspect,,
108,condition1,NA,embed,2,mos,<u>Hanako said: Yash didn't whine that Ming forgot her phone. </u>,9,"What Ming forgot, according to Yash.",23437,backgroundedness,10,whine,,
108,condition1,NA,embed,2,say,<u>Hanako said: Charlie didn't say that Maddie would call her roommate.</u>,305,"Who Maddie would call, according to Charlie.",24576,backgroundedness,11,say,,
108,condition1,0.26,NA,2,filler_bad,Hanako said: Amelia didn't suggest that Frank and Lisa were in the office.,117,NA,7973,acceptability,12,suggest,,
108,condition1,NA,verb,3,mos,<u>Hanako said: Amy didn't scream that Charlie saw the robber.</u>,6,The way Amy communicated that Charlie saw the robber.,32074,backgroundedness,13,scream,,
108,condition1,NA,verb,3,filler_bad,<u>Hanako said: Tim didn't suspect that Liz and Jason drank the beer. </u>,114,Who suspected that Jason drank the beer.,16557,backgroundedness,14,suspect,,
108,condition1,0.64,NA,3,filler_good,Hanako said: Grace didn't suggest that Karen wrote a book.,102,NA,9891,acceptability,15,suggest,,
108,condition1,0.79,NA,3,say,Hanako said: Nancy didn't say that Julian ate the cupcake.,309,NA,5761,acceptability,16,say,,
108,condition1,0.95,NA,4,say,Hanako said: Danny didn't say that Jennifer got a cat.,308,NA,4435,acceptability,17,say,,
108,condition1,NA,embed,4,mos,<u>Hanako said: Fatima didn't murmur that Omar had dinner with his manager.</u>,10,"Who Omar had dinner with, according to Fatima.",8649,backgroundedness,18,murmur,,
108,condition1,0.27,NA,4,filler_bad,Hanako said: Donald didn't reveal that the parents of Krishna were moving to Texas. ,122,NA,13003,acceptability,19,reveal,,
108,condition1,NA,embed,4,filler_good,<u>Hanako said: Juliet didn't confirm that Sebastian would come to the party.</u>,112,Who confirmed that Sebastian would come to the party.,7867,backgroundedness,20,confirm,,
108,condition1,NA,verb,5,mos,<u>Hanako said: Igor didn't shriek that Penny won the lottery.</u>,11,The way Igor communicated that Penny won the lottery.,10011,backgroundedness,21,shriek,,
108,condition1,0,NA,5,filler_bad,Hanako said: Rui didn't imply that Carol's brother signed the contract.,119,NA,9465,acceptability,22,imply,,
108,condition1,1,NA,5,filler_good,Hanako said: Jess didn't reveal that Todd went out with Betty.,109,NA,4978,acceptability,23,reveal,,
108,condition1,NA,embed,5,say,<u>Hanako said: Ben didn't say that Laura ordered pizza.</u>,307,"What Laura ordered, according to Ben.",6200,backgroundedness,24,say,,
108,condition1,1,NA,6,filler_good,Hanako said: Ronald didn't imply that Jacy rented the truck.,106,NA,9011,acceptability,25,imply,,
108,condition1,1,NA,6,say,Hanako said: Tim didn't say that Jason drank the beer. ,304,NA,3088,acceptability,26,say,,
108,condition1,NA,verb,6,filler_bad,<u>Hanako said: Helen didn't think that Rob and Marc cut the bread. </u>,113,Who thought that Marc cut the bread.,11985,backgroundedness,27,think,,
108,condition1,NA,verb,6,mos,<u>Hanako said: John didn't whisper that Mary met with the lawyer.</u>,1,The way John communicated that Mary met with the lawyer.,8321,backgroundedness,28,whisper,,
108,condition1,1,NA,7,filler_good,Hanako said: Julie didn't guess that Charlie received a message.,108,NA,5658,acceptability,29,guess,,
108,condition1,NA,verb,7,mos,<u>Hanako said: Chandler didn't moan that Tia brought her parents.</u>,12,The way Chandler communicated that Tia brought her parents.,9345,backgroundedness,30,moan,,
108,condition1,0.07,NA,7,filler_bad,Hanako said: Ted didn't insist that Eva's uncle should stay for dinner.,124,NA,7513,acceptability,31,insist,,
108,condition1,NA,verb,7,say,<u>Hanako said: Tom didn't say that Sarah admired her friend. </u>,311,The way Tom communicated that Sarah admired her friend.,7613,backgroundedness,32,say,,
108,condition1,1,NA,8,say,Hanako said: Noah didn't say that Sharon wanted a dog.,312,NA,7311,acceptability,33,say,,
108,condition1,NA,verb,8,filler_bad,<u>Hanako said: Jessie didn't guess that the assistant to the director would give the presentation.</u>,121,"What the assistant to the director would do, according to Jessie.",9157,backgroundedness,34,guess,,
108,condition1,1,NA,8,filler_good,Hanako said: Selena didn't speculate that Justin would buy the house.,105,NA,6100,acceptability,35,spectulate,,
108,condition1,NA,verb,8,mos,<u>Hanako said: Jake didn't yell that Yumi found the wallet.</u>,7,The way Jake communicated that Yumi found the wallet.,4880,backgroundedness,36,yell,,
108,condition1,1,NA,9,filler_good,Hanako said: Ollie didn't think that Doug would invite the mayor.,101,NA,5086,acceptability,37,think,,
108,condition1,NA,verb,9,filler_bad,<u>Hanako said: Michael didn't speculate that Robert and Eric would leave the team.</u>,118,Who spculated that Eric would leave the team.,7802,backgroundedness,38,spectulate,,
108,condition1,0.79,NA,9,mos,Hanako said: Ashley didn't groan that Hasan talked to the detectives.,8,NA,6044,acceptability,39,groan,,
108,condition1,NA,verb,9,say,<u>Hanako said: Kate didn't say that Zack broke the plates.</u>,306,The way Kate communicated that Zack broke the plates.,8986,backgroundedness,40,say,,
108,condition1,NA,embed,10,filler_bad,<u>Hanako said: Jamal didn't expect that the book about astronomy was on the shelf.</u>,123,Which book Jamal expected to be on the shelf.,6695,backgroundedness,41,expect,,
108,condition1,0.83,NA,10,filler_good,Hanako said: Roger didn't expect that Andy would take the jacket.,104,NA,7646,acceptability,42,expect,,
108,condition1,0.93,NA,10,mos,Hanako said: Laura didn't mutter that Brandon broke his laptop.,4,NA,3255,acceptability,43,mutter,,
108,condition1,NA,verb,10,say,<u>Hanako said: Jessie didn't say that Michelle borrowed the computer.</u>,310,The way Jessie communicated that Michelle borrowed the computer.,5699,backgroundedness,44,say,,
108,condition1,0.96,NA,11,say,Hanako said: Emily didn't say that Paul drafted the letter.,302,NA,4057,acceptability,45,say,,
108,condition1,NA,verb,11,mos,<u>Hanako said: Emma didn't stammer that Kevin lost the keys.</u>,2,The way Emma communicated that Kevin lost the keys.,5881,backgroundedness,46,stammer,,
108,condition1,0.96,NA,11,filler_good,Hanako said: Ryan didn't expect that Leon heard the news.,111,NA,4557,acceptability,47,expect,,
108,condition1,NA,verb,11,filler_bad,<u>Hanako said: Ben didn't expect that Judith and Eleanor would solve the puzzle.</u>,116,Who expected that Eleanor would solve the puzzle.,9651,backgroundedness,48,expect,,
132,condition1,0.79,NA,practice,practice_acceptability_good_1,Hanako said: Fiona didn't buy pineapples.,201,,,acceptability,0,NA,0,
132,condition1,NA,incorrect,practice,practice_bg_good_2,<u>Hanako said: Vera didn't drive to Michigan.</u>,202,Where Vera drove to.,,backgroundedness,0,NA,,
132,condition1,0,NA,practice,practice_accpetability_bad_2,Hanako said: Prisha doesn't speak Korean.,204,,,acceptability,0,NA,0,
132,condition1,NA,incorrect,practice,practice_bg_bad_1,<u>Hanako said: Hank didn't buy the red car.</u>,203,Who bought the red car.,,backgroundedness,0,NA,,
132,condition1,0.91,NA,0,filler_good,Hanako said: Sebrina didn't suspect that James would cancel the trip.,110,NA,20227,acceptability,1,suspect,,
132,condition1,0.94,NA,0,say,Hanako said: Danny didn't say that Jennifer got a cat.,308,NA,9784,acceptability,2,say,,
132,condition1,NA,verb,0,mos,<u>Hanako said: Jake didn't yell that Yumi found the wallet.</u>,7,The way Jake communicated that Yumi found the wallet.,17634,backgroundedness,3,yell,,
132,condition1,NA,verb,0,filler_bad,<u>Hanako said: Ben didn't expect that Judith and Eleanor would solve the puzzle.</u>,116,Who expected that Eleanor would solve the puzzle.,33673,backgroundedness,4,expect,,
132,condition1,0.37,NA,1,mos,Hanako said: Chandler didn't moan that Tia brought her parents.,12,NA,14988,acceptability,5,moan,,
132,condition1,NA,verb,1,filler_good,<u>Hanako said: Grace didn't suggest that Karen wrote a book.</u>,102,"Who wrote a book, according to Grace.",19029,backgroundedness,6,suggest,,
132,condition1,NA,verb,1,say,<u>Hanako said: Tim didn't say that Jason drank the beer. </u>,304,The way Tim communicated that Jason drank the beer.,29529,backgroundedness,7,say,,
132,condition1,0.65,NA,1,filler_bad,Hanakko said: Larry didn't believe that Karl and Nick cooked dinner.,115,NA,14799,acceptability,8,believe,,
132,condition1,NA,verb,2,filler_bad,<u>Hanako said: Rui didn't imply that Carol's brother signed the contract.</u>,119,"What Carol's brother signed, according to Rui.",12116,backgroundedness,9,imply,,
132,condition1,NA,embed,2,say,<u>Hanako said: Tom didn't say that Sarah admired her friend. </u>,311,"Who Sarah admired, according to Tom.",8135,backgroundedness,10,say,,
132,condition1,0.58,NA,2,filler_good,Hanako said: Julie didn't guess that Charlie received a message.,108,NA,3021,acceptability,11,guess,,
132,condition1,0.54,NA,2,mos,Hanako said: Laura didn't mutter that Brandon broke his laptop.,4,NA,4316,acceptability,12,mutter,,
132,condition1,NA,verb,3,say,<u>Hanako said: Kate didn't say that Zack broke the plates.</u>,306,The way Kate communicated that Zack broke the plates.,9106,backgroundedness,13,say,,
132,condition1,NA,verb,3,filler_bad,<u>Hanako said: Donald didn't reveal that the parents of Krishna were moving to Texas. </u>,122,"Where Krishna's parents were moving to, according to Donald.",14141,backgroundedness,14,reveal,,
132,condition1,0.6,NA,3,filler_good,Hanako said: Juliet didn't confirm that Sebastian would come to the party.,112,NA,2823,acceptability,15,confirm,,
132,condition1,0.46,NA,3,mos,Hanako said: Emma didn't stammer that Kevin lost the keys.,2,NA,2364,acceptability,16,stammer,,
132,condition1,NA,verb,4,mos,<u>Hanako said: Amy didn't scream that Charlie saw the robber.</u>,6,The way Amy communicated that Charlie saw the robber.,10648,backgroundedness,17,scream,,
132,condition1,NA,embed,4,filler_good,<u>Hanako said: Ronald didn't imply that Jacy rented the truck.</u>,106,Who implied that Jacy rented the truck.,15737,backgroundedness,18,imply,,
132,condition1,0.52,NA,4,filler_bad,Hanako said: Jamal didn't expect that the book about astronomy was on the shelf.,123,NA,2336,acceptability,19,expect,,
132,condition1,0.52,NA,4,say,Hanako said: Charlie didn't say that Maddie would call her roommate.,305,NA,1767,acceptability,20,say,,
132,condition1,NA,embed,5,mos,<u>Hanako said: Bill didn't shout that Dan knew the professor.</u>,5,"Who Dan knew, according to Bill.",6433,backgroundedness,21,shout,,
132,condition1,0.7,NA,5,say,Hanako said: Jessie didn't say that Michelle borrowed the computer.,310,NA,3109,acceptability,22,say,,
132,condition1,0.59,NA,5,filler_good,Hanako said: Ollie didn't think that Doug would invite the mayor.,101,NA,2127,acceptability,23,think,,
132,condition1,NA,embed,5,filler_bad,<u>Hanako said: Tim didn't suspect that Liz and Jason drank the beer. </u>,114,"Who else drank the beer other than Liz, according to Tim.",5274,backgroundedness,24,suspect,,
132,condition1,NA,embed,6,filler_good,<u>Hanako said: Jess didn't reveal that Todd went out with Betty.</u>,109,Who revealed that Todd went out with Betty.,4218,backgroundedness,25,reveal,,
132,condition1,0.7,NA,6,filler_bad,Hanako said: Helen didn't think that Rob and Marc cut the bread. ,113,NA,2513,acceptability,26,think,,
132,condition1,NA,verb,6,say,<u>Hanako said: Ben didn't say that Laura ordered pizza.</u>,307,The way Ben communicated that Laura ordered pizza.,7986,backgroundedness,27,say,,
132,condition1,0.73,NA,6,mos,Hanako said: Yash didn't whine that Ming forgot her phone. ,9,NA,3234,acceptability,28,whine,,
132,condition1,NA,embed,7,filler_good,<u>Hanako said: Roger didn't expect that Andy would take the jacket.</u>,104,"What Andy would take, according to Roger.",6443,backgroundedness,29,expect,,
132,condition1,0.62,NA,7,say,Hanako said: Nancy didn't say that Julian ate the cupcake.,309,NA,3108,acceptability,30,say,,
132,condition1,0.61,NA,7,mos,Hanako said: Howard didn't mumble that Alex bought a birthday cake.,3,NA,2836,acceptability,31,mumble,,
132,condition1,NA,verb,7,filler_bad,<u>Hanako said: Frankie didn't hope that the agent of the guitarist would show up. </u>,120,"What the agent of the guitarist did, according to Frankie.",186393,backgroundedness,32,hope,,
132,condition1,0.65,NA,8,mos,Hanako said: Fatima didn't murmur that Omar had dinner with his manager.,10,NA,2512,acceptability,33,murmur,,
132,condition1,NA,embed,8,filler_good,<u>Hanako said: Matthew didn't hope that Dana brought a gift.</u>,107,Who hoped that Dana brought a gift.,4428,backgroundedness,34,hope,,
132,condition1,NA,embed,8,filler_bad,<u>Hanako said: Jessie didn't guess that the assistant to the director would give the presentation.</u>,121,"Whose assistant would give the presentation, as Jessie guessed.",5673,backgroundedness,35,guess,,
132,condition1,0.62,NA,8,say,Hanako said: Hannah didn't say that George emailed the students.,301,NA,2275,acceptability,36,say,,
132,condition1,0.37,NA,9,mos,Hanako said: Ashley didn't groan that Hasan talked to the detectives.,8,NA,2314,acceptability,37,groan,,
132,condition1,0.62,NA,9,filler_good,Hanako said: Ryan didn't expect that Leon heard the news.,111,NA,2401,acceptability,38,expect,,
132,condition1,NA,verb,9,say,<u>Hanako said: Sally didn't say that Tony would visit George.</u>,303,The way Sally communicated that Tony would visit George.,5610,backgroundedness,39,say,,
132,condition1,NA,embed,9,filler_bad,<u>Hanako said: Ted didn't insist that Eva's uncle should stay for dinner.</u>,124,"Whose uncle should stay for dinner, as Tedd insisted.",6869,backgroundedness,40,insist,,
132,condition1,NA,verb,10,say,<u>Hanako said: Noah didn't say that Sharon wanted a dog.</u>,312,The way Noah communicated that Sharon wanted a dog.,82542,backgroundedness,41,say,,
132,condition1,0.71,NA,10,mos,Hanako said: Igor didn't shriek that Penny won the lottery.,11,NA,2860,acceptability,42,shriek,,
132,condition1,0.51,NA,10,filler_good,Hanako said: Jean didn't believe that Grant adopted a kitten.,103,NA,2350,acceptability,43,believe,,
132,condition1,NA,verb,10,filler_bad,<u>Hanako said: Amelia didn't suggest that Frank and Lisa were in the office.</u>,117,Who suggested that Lisa was in the office.,7032,backgroundedness,44,suggest,,
132,condition1,NA,embed,11,say,<u>Hanako said: Emily didn't say that Paul drafted the letter.</u>,302,"What Paul drafted, according to Emily.",8035,backgroundedness,45,say,,
132,condition1,0.7,NA,11,mos,Hanako said: John didn't whisper that Mary met with the lawyer.,1,NA,2935,acceptability,46,whisper,,
132,condition1,NA,embed,11,filler_good,<u>Hanako said: Selena didn't speculate that Justin would buy the house.</u>,105,"What Justin would buy, according to Selena.",6730,backgroundedness,47,spectulate,,
132,condition1,0.67,NA,11,filler_bad,Hanako said: Michael didn't speculate that Robert and Eric would leave the team.,118,NA,3171,acceptability,48,spectulate,,
116,condition1,0.83,NA,practice,practice_acceptability_good_1,Hanako said: Fiona didn't buy pineapples.,201,,,acceptability,0,NA,0,
116,condition1,NA,incorrect,practice,practice_bg_good_2,<u>Hanako said: Vera didn't drive to Michigan.</u>,202,Where Vera drove to.,,backgroundedness,0,NA,,
116,condition1,0,NA,practice,practice_accpetability_bad_2,Hanako said: Prisha doesn't speak Korean.,204,,,acceptability,0,NA,2,
116,condition1,NA,correct,practice,practice_bg_bad_1,<u>Hanako said: Hank didn't buy the red car.</u>,203,Which car Hank bought.,,backgroundedness,0,NA,,
116,condition1,0.91,NA,0,mos,Hanako said: John didn't whisper that Mary met with the lawyer.,1,NA,7267,acceptability,1,whisper,,
116,condition1,NA,verb,0,filler_bad,<u>Hanako said: Jamal didn't expect that the book about astronomy was on the shelf.</u>,123,"Where the book about astronomy was, according to Jamal. ",5192,backgroundedness,2,expect,,
116,condition1,NA,verb,0,say,<u>Hanako said: Jessie didn't say that Michelle borrowed the computer.</u>,310,The way Jessie communicated that Michelle borrowed the computer.,302616,backgroundedness,3,say,,
116,condition1,0.65,NA,0,filler_good,Hanako said: Roger didn't expect that Andy would take the jacket.,104,NA,23064,acceptability,4,expect,,
116,condition1,NA,embed,1,filler_good,<u>Hanako said: Jean didn't believe that Grant adopted a kitten.</u>,103,"What Grant adopted, according to Jean.",35951,backgroundedness,5,believe,,
116,condition1,1,NA,1,mos,Hanako said: Igor didn't shriek that Penny won the lottery.,11,NA,2406,acceptability,6,shriek,,
116,condition1,0,NA,1,say,Hanako said: Tom didn't say that Sarah admired her friend. ,311,NA,2961,acceptability,7,say,,
116,condition1,NA,embed,1,filler_bad,<u>Hanako said: Jessie didn't guess that the assistant to the director would give the presentation.</u>,121,"Whose assistant would give the presentation, as Jessie guessed.",2656,backgroundedness,8,guess,,
116,condition1,NA,verb,2,filler_bad,<u>Hanako said: Donald didn't reveal that the parents of Krishna were moving to Texas. </u>,122,"Where Krishna's parents were moving to, according to Donald.",2855,backgroundedness,9,reveal,,
116,condition1,1,NA,2,mos,Hanako said: Amy didn't scream that Charlie saw the robber.,6,NA,2639,acceptability,10,scream,,
116,condition1,NA,embed,2,filler_good,<u>Hanako said: Matthew didn't hope that Dana brought a gift.</u>,107,Who hoped that Dana brought a gift.,4969,backgroundedness,11,hope,,
116,condition1,1,NA,2,say,Hanako said: Danny didn't say that Jennifer got a cat.,308,NA,61159,acceptability,12,say,,
116,condition1,1,NA,3,mos,Hanako said: Howard didn't mumble that Alex bought a birthday cake.,3,NA,2608,acceptability,13,mumble,,
116,condition1,NA,embed,3,filler_bad,<u>Hanako said: Helen didn't think that Rob and Marc cut the bread. </u>,113,"Who else cut the bread other than Rob, according to Helen.",2409,backgroundedness,14,think,,
116,condition1,NA,verb,3,filler_good,<u>Hanako said: Juliet didn't confirm that Sebastian would come to the party.</u>,112,"Who would come to the party, according to Juliet.",1951,backgroundedness,15,confirm,,
116,condition1,0,NA,3,say,Hanako said: Nancy didn't say that Julian ate the cupcake.,309,NA,1782,acceptability,16,say,,
116,condition1,NA,verb,4,filler_bad,<u>Hanako said: Rui didn't imply that Carol's brother signed the contract.</u>,119,"What Carol's brother signed, according to Rui.",2344,backgroundedness,17,imply,,
116,condition1,NA,verb,4,filler_good,<u>Hanako said: Sebrina didn't suspect that James would cancel the trip.</u>,110,"Who would cancel the trip, according to Sebrina.",2000,backgroundedness,18,suspect,,
116,condition1,1,NA,4,say,Hanako said: Sally didn't say that Tony would visit George.,303,NA,2248,acceptability,19,say,,
116,condition1,1,NA,4,mos,Hanako said: Ashley didn't groan that Hasan talked to the detectives.,8,NA,3736,acceptability,20,groan,,
116,condition1,NA,verb,5,say,<u>Hanako said: Ben didn't say that Laura ordered pizza.</u>,307,The way Ben communicated that Laura ordered pizza.,4519,backgroundedness,21,say,,
116,condition1,1,NA,5,filler_good,Hanako said: Selena didn't speculate that Justin would buy the house.,105,NA,2792,acceptability,22,spectulate,,
116,condition1,0,NA,5,filler_bad,Hanako said: Ben didn't expect that Judith and Eleanor would solve the puzzle.,116,NA,2103,acceptability,23,expect,,
116,condition1,NA,verb,5,mos,<u>Hanako said: Jake didn't yell that Yumi found the wallet.</u>,7,The way Jake communicated that Yumi found the wallet.,3353,backgroundedness,24,yell,,
116,condition1,NA,embed,6,filler_bad,<u>Hanako said: Michael didn't speculate that Robert and Eric would leave the team.</u>,118,Who else would leave the team other than Robert.,2207,backgroundedness,25,spectulate,,
116,condition1,0,NA,6,say,Hanako said: Emily didn't say that Paul drafted the letter.,302,NA,1799,acceptability,26,say,,
116,condition1,NA,embed,6,mos,<u>Hanako said: Yash didn't whine that Ming forgot her phone. </u>,9,"What Ming forgot, according to Yash.",2768,backgroundedness,27,whine,,
116,condition1,1,NA,6,filler_good,Hanako said: Grace didn't suggest that Karen wrote a book.,102,NA,2536,acceptability,28,suggest,,
116,condition1,1,NA,7,say,Hanako said: Hannah didn't say that George emailed the students.,301,NA,2480,acceptability,29,say,,
116,condition1,1,NA,7,mos,Hanako said: Chandler didn't moan that Tia brought her parents.,12,NA,2328,acceptability,30,moan,,
116,condition1,NA,embed,7,filler_good,<u>Hanako said: Julie didn't guess that Charlie received a message.</u>,108,Who guessed that Charlie received a message.,2608,backgroundedness,31,guess,,
116,condition1,NA,embed,7,filler_bad,<u>Hanako said: Frankie didn't hope that the agent of the guitarist would show up. </u>,120,"Whose agent would show up, as Frankie hoped.",2911,backgroundedness,32,hope,,
116,condition1,1,NA,8,filler_bad,Hanakko said: Larry didn't believe that Karl and Nick cooked dinner.,115,NA,2496,acceptability,33,believe,,
116,condition1,NA,embed,8,mos,<u>Hanako said: Fatima didn't murmur that Omar had dinner with his manager.</u>,10,"Who Omar had dinner with, according to Fatima.",10455,backgroundedness,34,murmur,,
116,condition1,NA,verb,8,say,<u>Hanako said: Charlie didn't say that Maddie would call her roommate.</u>,305,The way Charlie communicated that Maddie would call her roommate.,7840,backgroundedness,35,say,,
116,condition1,0,NA,8,filler_good,Hanako said: Jess didn't reveal that Todd went out with Betty.,109,NA,1840,acceptability,36,reveal,,
116,condition1,NA,verb,9,say,<u>Hanako said: Tim didn't say that Jason drank the beer. </u>,304,The way Tim communicated that Jason drank the beer.,2488,backgroundedness,37,say,,
116,condition1,NA,verb,9,filler_good,<u>Hanako said: Ollie didn't think that Doug would invite the mayor.</u>,101,"Who invited the mayor, according to Ollie.",1984,backgroundedness,38,think,,
116,condition1,1,NA,9,mos,Hanako said: Emma didn't stammer that Kevin lost the keys.,2,NA,2664,acceptability,39,stammer,,
116,condition1,1,NA,9,filler_bad,Hanako said: Tim didn't suspect that Liz and Jason drank the beer. ,114,NA,69793,acceptability,40,suspect,,
116,condition1,NA,verb,10,filler_good,<u>Hanako said: Ryan didn't expect that Leon heard the news.</u>,111,"Who heard the news, according to Leon.",4352,backgroundedness,41,expect,,
116,condition1,1,NA,10,say,Hanako said: Kate didn't say that Zack broke the plates.,306,NA,2878,acceptability,42,say,,
116,condition1,NA,embed,10,filler_bad,<u>Hanako said: Amelia didn't suggest that Frank and Lisa were in the office.</u>,117,Who else was in the office other than Frank.,11672,backgroundedness,43,suggest,,
116,condition1,0.09,NA,10,mos,Hanako said: Bill didn't shout that Dan knew the professor.,5,NA,2512,acceptability,44,shout,,
116,condition1,NA,verb,11,filler_good,<u>Hanako said: Ronald didn't imply that Jacy rented the truck.</u>,106,"What Jacy rented, according to Ronald.",2720,backgroundedness,45,imply,,
116,condition1,0.95,NA,11,say,Hanako said: Noah didn't say that Sharon wanted a dog.,312,NA,2535,acceptability,46,say,,
116,condition1,NA,verb,11,mos,<u>Hanako said: Laura didn't mutter that Brandon broke his laptop.</u>,4,The way Laura communicated that Brandon broke his laptop.,2777,backgroundedness,47,mutter,,
116,condition1,0.03,NA,11,filler_bad,Hanako said: Ted didn't insist that Eva's uncle should stay for dinner.,124,NA,1623,acceptability,48,insist,,
100,condition1,0.83,NA,practice,practice_acceptability_good_1,Hanako said: Fiona didn't buy pineapples.,201,,,acceptability,0,NA,0,
100,condition1,NA,correct,practice,practice_bg_good_2,<u>Hanako said: Vera didn't drive to Michigan.</u>,202,How Vera travelled to Michigan.,,backgroundedness,0,NA,,
100,condition1,0.01,NA,practice,practice_accpetability_bad_2,Hanako said: Prisha doesn't speak Korean.,204,,,acceptability,0,NA,0,
100,condition1,NA,correct,practice,practice_bg_bad_1,<u>Hanako said: Hank didn't buy the red car.</u>,203,Which car Hank bought.,,backgroundedness,0,NA,,
100,condition1,0.21,NA,0,filler_bad,Hanako said: Ben didn't expect that Judith and Eleanor would solve the puzzle.,116,NA,7781,acceptability,1,expect,,
100,condition1,NA,verb,0,say,<u>Hanako said: Noah didn't say that Sharon wanted a dog.</u>,312,The way Noah communicated that Sharon wanted a dog.,8815,backgroundedness,2,say,,
100,condition1,NA,verb,0,filler_good,<u>Hanako said: Grace didn't suggest that Karen wrote a book.</u>,102,"Who wrote a book, according to Grace.",11898,backgroundedness,3,suggest,,
100,condition1,0.53,NA,0,mos,Hanako said: Fatima didn't murmur that Omar had dinner with his manager.,10,NA,9956,acceptability,4,murmur,,
100,condition1,NA,verb,1,say,<u>Hanako said: Sally didn't say that Tony would visit George.</u>,303,The way Sally communicated that Tony would visit George.,19046,backgroundedness,5,say,,
100,condition1,NA,verb,1,mos,<u>Hanako said: Igor didn't shriek that Penny won the lottery.</u>,11,The way Igor communicated that Penny won the lottery.,9583,backgroundedness,6,shriek,,
100,condition1,0.19,NA,1,filler_bad,Hanako said: Michael didn't speculate that Robert and Eric would leave the team.,118,NA,14076,acceptability,7,spectulate,,
100,condition1,0.91,NA,1,filler_good,Hanako said: Roger didn't expect that Andy would take the jacket.,104,NA,6415,acceptability,8,expect,,
100,condition1,NA,embed,2,filler_good,<u>Hanako said: Sebrina didn't suspect that James would cancel the trip.</u>,110,Who suspected that James would cancel the trip.,7405,backgroundedness,9,suspect,,
100,condition1,NA,verb,2,mos,<u>Hanako said: Howard didn't mumble that Alex bought a birthday cake.</u>,3,The way Howard communicated that Alex bought a birthday cake.,52905,backgroundedness,10,mumble,,
100,condition1,0.92,NA,2,say,Hanako said: Jessie didn't say that Michelle borrowed the computer.,310,NA,8718,acceptability,11,say,,
100,condition1,0.13,NA,2,filler_bad,Hanako said: Amelia didn't suggest that Frank and Lisa were in the office.,117,NA,5316,acceptability,12,suggest,,
100,condition1,NA,embed,3,filler_bad,<u>Hanako said: Jessie didn't guess that the assistant to the director would give the presentation.</u>,121,"Whose assistant would give the presentation, as Jessie guessed.",18056,backgroundedness,13,guess,,
100,condition1,0.31,NA,3,filler_good,Hanako said: Ryan didn't expect that Leon heard the news.,111,NA,9553,acceptability,14,expect,,
100,condition1,0.5,NA,3,say,Hanako said: Danny didn't say that Jennifer got a cat.,308,NA,4965,acceptability,15,say,,
100,condition1,NA,embed,3,mos,<u>Hanako said: Chandler didn't moan that Tia brought her parents.</u>,12,"Who Tia brought, according to Chandler.",81157,backgroundedness,16,moan,,
100,condition1,NA,embed,4,filler_good,<u>Hanako said: Ollie didn't think that Doug would invite the mayor.</u>,101,"Who Doug would invite, according to Ollie.",10468,backgroundedness,17,think,,
100,condition1,NA,embed,4,filler_bad,<u>Hanako said: Frankie didn't hope that the agent of the guitarist would show up. </u>,120,"Whose agent would show up, as Frankie hoped.",109914,backgroundedness,18,hope,,
100,condition1,0.73,NA,4,mos,Hanako said: Emma didn't stammer that Kevin lost the keys.,2,NA,22644,acceptability,19,stammer,,
100,condition1,0.67,NA,4,say,Hanako said: Emily didn't say that Paul drafted the letter.,302,NA,6833,acceptability,20,say,,
100,condition1,NA,embed,5,filler_good,<u>Hanako said: Matthew didn't hope that Dana brought a gift.</u>,107,Who hoped that Dana brought a gift.,19303,backgroundedness,21,hope,,
100,condition1,0.81,NA,5,say,Hanako said: Tom didn't say that Sarah admired her friend. ,311,NA,6569,acceptability,22,say,,
100,condition1,0.05,NA,5,filler_bad,Hanako said: Donald didn't reveal that the parents of Krishna were moving to Texas. ,122,NA,48876,acceptability,23,reveal,,
100,condition1,NA,verb,5,mos,<u>Hanako said: Amy didn't scream that Charlie saw the robber.</u>,6,The way Amy communicated that Charlie saw the robber.,555960,backgroundedness,24,scream,,
100,condition1,0.92,NA,6,say,Hanako said: Tim didn't say that Jason drank the beer. ,304,NA,6183,acceptability,25,say,,
100,condition1,NA,embed,6,filler_good,<u>Hanako said: Juliet didn't confirm that Sebastian would come to the party.</u>,112,Who confirmed that Sebastian would come to the party.,13806,backgroundedness,26,confirm,,
100,condition1,NA,verb,6,filler_bad,<u>Hanako said: Helen didn't think that Rob and Marc cut the bread. </u>,113,Who thought that Marc cut the bread.,5967,backgroundedness,27,think,,
100,condition1,0.51,NA,6,mos,Hanako said: Yash didn't whine that Ming forgot her phone. ,9,NA,9248,acceptability,28,whine,,
100,condition1,NA,embed,7,filler_good,<u>Hanako said: Julie didn't guess that Charlie received a message.</u>,108,Who guessed that Charlie received a message.,7315,backgroundedness,29,guess,,
100,condition1,NA,verb,7,mos,<u>Hanako said: Bill didn't shout that Dan knew the professor.</u>,5,The way Bill communicated that Dan knew the professor.,10501,backgroundedness,30,shout,,
100,condition1,0.01,NA,7,filler_bad,Hanako said: Tim didn't suspect that Liz and Jason drank the beer. ,114,NA,13979,acceptability,31,suspect,,
100,condition1,0.93,NA,7,say,Hanako said: Nancy didn't say that Julian ate the cupcake.,309,NA,6581,acceptability,32,say,,
100,condition1,NA,verb,8,filler_bad,<u>Hanako said: Rui didn't imply that Carol's brother signed the contract.</u>,119,"What Carol's brother signed, according to Rui.",8903,backgroundedness,33,imply,,
100,condition1,0.85,NA,8,mos,Hanako said: Jake didn't yell that Yumi found the wallet.,7,NA,6311,acceptability,34,yell,,
100,condition1,NA,embed,8,filler_good,<u>Hanako said: Jess didn't reveal that Todd went out with Betty.</u>,109,Who revealed that Todd went out with Betty.,7613,backgroundedness,35,reveal,,
100,condition1,0.98,NA,8,say,Hanako said: Hannah didn't say that George emailed the students.,301,NA,5282,acceptability,36,say,,
100,condition1,0.81,NA,9,filler_good,Hanako said: Jean didn't believe that Grant adopted a kitten.,103,NA,11909,acceptability,37,believe,,
100,condition1,NA,verb,9,mos,<u>Hanako said: John didn't whisper that Mary met with the lawyer.</u>,1,The way John communicated that Mary met with the lawyer.,7015,backgroundedness,38,whisper,,
100,condition1,0.9,NA,9,say,Hanako said: Ben didn't say that Laura ordered pizza.,307,NA,4865,acceptability,39,say,,
100,condition1,NA,verb,9,filler_bad,<u>Hanakko said: Larry didn't believe that Karl and Nick cooked dinner.</u>,115,Who believed that Nick cooked dinner.,6800,backgroundedness,40,believe,,
100,condition1,0.65,NA,10,mos,Hanako said: Laura didn't mutter that Brandon broke his laptop.,4,NA,6615,acceptability,41,mutter,,
100,condition1,NA,verb,10,filler_bad,<u>Hanako said: Jamal didn't expect that the book about astronomy was on the shelf.</u>,123,"Where the book about astronomy was, according to Jamal. ",6667,backgroundedness,42,expect,,
100,condition1,NA,embed,10,filler_good,<u>Hanako said: Ronald didn't imply that Jacy rented the truck.</u>,106,Who implied that Jacy rented the truck.,6878,backgroundedness,43,imply,,
100,condition1,0.96,NA,10,say,Hanako said: Charlie didn't say that Maddie would call her roommate.,305,NA,6179,acceptability,44,say,,
100,condition1,0.88,NA,11,say,Hanako said: Kate didn't say that Zack broke the plates.,306,NA,7566,acceptability,45,say,,
100,condition1,0.18,NA,11,mos,Hanako said: Ashley didn't groan that Hasan talked to the detectives.,8,NA,7181,acceptability,46,groan,,
100,condition1,NA,verb,11,filler_bad,<u>Hanako said: Ted didn't insist that Eva's uncle should stay for dinner.</u>,124,"What Eva's uncle should do, according to Ted.",8134,backgroundedness,47,insist,,
100,condition1,NA,embed,11,filler_good,<u>Hanako said: Selena didn't speculate that Justin would buy the house.</u>,105,"What Justin would buy, according to Selena.",9734,backgroundedness,48,spectulate,,
44,condition1,0.9,NA,practice,practice_acceptability_good_1,Hanako said: Fiona didn't buy pineapples.,201,,,acceptability,0,NA,1,
44,condition1,NA,correct,practice,practice_bg_good_2,<u>Hanako said: Vera didn't drive to Michigan.</u>,202,How Vera travelled to Michigan.,,backgroundedness,0,NA,,
44,condition1,0.08,NA,practice,practice_accpetability_bad_2,Hanako said: Prisha doesn't speak Korean.,204,,,acceptability,0,NA,0,
44,condition1,NA,correct,practice,practice_bg_bad_1,<u>Hanako said: Hank didn't buy the red car.</u>,203,Which car Hank bought.,,backgroundedness,0,NA,,
44,condition1,0.96,NA,0,filler_good,Hanako said: Ronald didn't imply that Jacy rented the truck.,106,NA,15180,acceptability,1,imply,,
44,condition1,NA,verb,0,filler_bad,<u>Hanako said: Frankie didn't hope that the agent of the guitarist would show up. </u>,120,"What the agent of the guitarist did, according to Frankie.",43395,backgroundedness,2,hope,,
44,condition1,0.99,NA,0,mos,Hanako said: Bill didn't shout that Dan knew the professor.,5,NA,15082,acceptability,3,shout,,
44,condition1,NA,embed,0,say,<u>Hanako said: Charlie didn't say that Maddie would call her roommate.</u>,305,"Who Maddie would call, according to Charlie.",29624,backgroundedness,4,say,,
44,condition1,0.97,NA,1,filler_good,Hanako said: Jean didn't believe that Grant adopted a kitten.,103,NA,9503,acceptability,5,believe,,
44,condition1,0.95,NA,1,say,Hanako said: Kate didn't say that Zack broke the plates.,306,NA,8337,acceptability,6,say,,
44,condition1,NA,embed,1,mos,<u>Hanako said: Ashley didn't groan that Hasan talked to the detectives.</u>,8,"Who Hasan talked to, according to Ashley.",25491,backgroundedness,7,groan,,
44,condition1,NA,embed,1,filler_bad,<u>Hanako said: Helen didn't think that Rob and Marc cut the bread. </u>,113,"Who else cut the bread other than Rob, according to Helen.",28599,backgroundedness,8,think,,
44,condition1,NA,verb,2,filler_bad,<u>Hanako said: Ben didn't expect that Judith and Eleanor would solve the puzzle.</u>,116,Who expected that Eleanor would solve the puzzle.,30615,backgroundedness,9,expect,,
44,condition1,0.98,NA,2,filler_good,Hanako said: Grace didn't suggest that Karen wrote a book.,102,NA,9744,acceptability,10,suggest,,
44,condition1,0.95,NA,2,mos,Hanako said: Chandler didn't moan that Tia brought her parents.,12,NA,10404,acceptability,11,moan,,
44,condition1,NA,embed,2,say,<u>Hanako said: Tom didn't say that Sarah admired her friend. </u>,311,"Who Sarah admired, according to Tom.",21583,backgroundedness,12,say,,
44,condition1,0.97,NA,3,say,Hanako said: Jessie didn't say that Michelle borrowed the computer.,310,NA,8194,acceptability,13,say,,
44,condition1,0.43,NA,3,filler_bad,Hanako said: Jamal didn't expect that the book about astronomy was on the shelf.,123,NA,25255,acceptability,14,expect,,
44,condition1,NA,embed,3,filler_good,<u>Hanako said: Ollie didn't think that Doug would invite the mayor.</u>,101,"Who Doug would invite, according to Ollie.",19799,backgroundedness,15,think,,
44,condition1,NA,verb,3,mos,<u>Hanako said: Igor didn't shriek that Penny won the lottery.</u>,11,The way Igor communicated that Penny won the lottery.,12243,backgroundedness,16,shriek,,
44,condition1,NA,verb,4,mos,<u>Hanako said: Jake didn't yell that Yumi found the wallet.</u>,7,The way Jake communicated that Yumi found the wallet.,14922,backgroundedness,17,yell,,
44,condition1,NA,verb,4,filler_good,<u>Hanako said: Juliet didn't confirm that Sebastian would come to the party.</u>,112,"Who would come to the party, according to Juliet.",11999,backgroundedness,18,confirm,,
44,condition1,0.02,NA,4,filler_bad,Hanako said: Ted didn't insist that Eva's uncle should stay for dinner.,124,NA,12757,acceptability,19,insist,,
44,condition1,0.97,NA,4,say,Hanako said: Tim didn't say that Jason drank the beer. ,304,NA,8983,acceptability,20,say,,
44,condition1,NA,verb,5,filler_bad,<u>Hanako said: Rui didn't imply that Carol's brother signed the contract.</u>,119,"What Carol's brother signed, according to Rui.",24840,backgroundedness,21,imply,,
44,condition1,NA,embed,5,say,<u>Hanako said: Danny didn't say that Jennifer got a cat.</u>,308,"What Jennifer got, according to Danny.",12292,backgroundedness,22,say,,
44,condition1,0.96,NA,5,mos,Hanako said: Fatima didn't murmur that Omar had dinner with his manager.,10,NA,14115,acceptability,23,murmur,,
44,condition1,0.98,NA,5,filler_good,Hanako said: Roger didn't expect that Andy would take the jacket.,104,NA,10037,acceptability,24,expect,,
44,condition1,NA,verb,6,filler_bad,<u>Hanako said: Donald didn't reveal that the parents of Krishna were moving to Texas. </u>,122,"Where Krishna's parents were moving to, according to Donald.",15598,backgroundedness,25,reveal,,
44,condition1,1,NA,6,say,Hanako said: Nancy didn't say that Julian ate the cupcake.,309,NA,10334,acceptability,26,say,,
44,condition1,0.96,NA,6,filler_good,Hanako said: Matthew didn't hope that Dana brought a gift.,107,NA,14762,acceptability,27,hope,,
44,condition1,NA,verb,6,mos,<u>Hanako said: Amy didn't scream that Charlie saw the robber.</u>,6,The way Amy communicated that Charlie saw the robber.,24774,backgroundedness,28,scream,,
44,condition1,0.98,NA,7,say,Hanako said: Emily didn't say that Paul drafted the letter.,302,NA,11012,acceptability,29,say,,
44,condition1,NA,verb,7,filler_bad,<u>Hanako said: Jessie didn't guess that the assistant to the director would give the presentation.</u>,121,"What the assistant to the director would do, according to Jessie.",24987,backgroundedness,30,guess,,
44,condition1,0.54,NA,7,mos,Hanako said: Yash didn't whine that Ming forgot her phone. ,9,NA,8915,acceptability,31,whine,,
44,condition1,NA,verb,7,filler_good,<u>Hanako said: Julie didn't guess that Charlie received a message.</u>,108,"What Charlie received, according to Julie.",26215,backgroundedness,32,guess,,
44,condition1,0.92,NA,8,filler_good,Hanako said: Jess didn't reveal that Todd went out with Betty.,109,NA,12136,acceptability,33,reveal,,
44,condition1,NA,embed,8,filler_bad,<u>Hanakko said: Larry didn't believe that Karl and Nick cooked dinner.</u>,115,"Who else cooked dinner other than Karl, according to Larry.",24605,backgroundedness,34,believe,,
44,condition1,NA,verb,8,mos,<u>Hanako said: Laura didn't mutter that Brandon broke his laptop.</u>,4,The way Laura communicated that Brandon broke his laptop.,11151,backgroundedness,35,mutter,,
44,condition1,0.99,NA,8,say,Hanako said: Ben didn't say that Laura ordered pizza.,307,NA,8379,acceptability,36,say,,
44,condition1,NA,verb,9,mos,<u>Hanako said: Emma didn't stammer that Kevin lost the keys.</u>,2,The way Emma communicated that Kevin lost the keys.,13453,backgroundedness,37,stammer,,
44,condition1,0.89,NA,9,filler_good,Hanako said: Selena didn't speculate that Justin would buy the house.,105,NA,8733,acceptability,38,spectulate,,
44,condition1,0.06,NA,9,filler_bad,Hanako said: Tim didn't suspect that Liz and Jason drank the beer. ,114,NA,16093,acceptability,39,suspect,,
44,condition1,NA,verb,9,say,<u>Hanako said: Noah didn't say that Sharon wanted a dog.</u>,312,The way Noah communicated that Sharon wanted a dog.,15748,backgroundedness,40,say,,
44,condition1,NA,verb,10,say,<u>Hanako said: Hannah didn't say that George emailed the students.</u>,301,The way Hannah communicated that George emailed the students.,22369,backgroundedness,41,say,,
44,condition1,0.04,NA,10,filler_bad,Hanako said: Michael didn't speculate that Robert and Eric would leave the team.,118,NA,9490,acceptability,42,spectulate,,
44,condition1,NA,embed,10,filler_good,<u>Hanako said: Ryan didn't expect that Leon heard the news.</u>,111,"What Leon heard, according to Ryan.",21556,backgroundedness,43,expect,,
44,condition1,0.94,NA,10,mos,Hanako said: Howard didn't mumble that Alex bought a birthday cake.,3,NA,7749,acceptability,44,mumble,,
44,condition1,NA,verb,11,mos,<u>Hanako said: John didn't whisper that Mary met with the lawyer.</u>,1,The way John communicated that Mary met with the lawyer.,13140,backgroundedness,45,whisper,,
44,condition1,0.13,NA,11,filler_bad,Hanako said: Amelia didn't suggest that Frank and Lisa were in the office.,117,NA,10760,acceptability,46,suggest,,
44,condition1,NA,embed,11,filler_good,<u>Hanako said: Sebrina didn't suspect that James would cancel the trip.</u>,110,Who suspected that James would cancel the trip.,18580,backgroundedness,47,suspect,,
44,condition1,0.96,NA,11,say,Hanako said: Sally didn't say that Tony would visit George.,303,NA,9766,acceptability,48,say,,
37,condition1,0.98,NA,practice,practice_acceptability_good_1,Hanako said: Fiona didn't buy pineapples.,201,,,acceptability,0,NA,0,
37,condition1,NA,correct,practice,practice_bg_good_2,<u>Hanako said: Vera didn't drive to Michigan.</u>,202,How Vera travelled to Michigan.,,backgroundedness,0,NA,,
37,condition1,0.16,NA,practice,practice_accpetability_bad_2,Hanako said: Prisha doesn't speak Korean.,204,,,acceptability,0,NA,0,
37,condition1,NA,correct,practice,practice_bg_bad_1,<u>Hanako said: Hank didn't buy the red car.</u>,203,Which car Hank bought.,,backgroundedness,0,NA,,
37,condition1,NA,embed,0,mos,<u>Hanako said: Ashley didn't groan that Hasan talked to the detectives.</u>,8,"Who Hasan talked to, according to Ashley.",47984,backgroundedness,1,groan,,
37,condition1,0.73,NA,0,say,Hanako said: Kate didn't say that Zack broke the plates.,306,NA,19011,acceptability,2,say,,
37,condition1,NA,embed,0,filler_bad,<u>Hanakko said: Larry didn't believe that Karl and Nick cooked dinner.</u>,115,"Who else cooked dinner other than Karl, according to Larry.",19458,backgroundedness,3,believe,,
37,condition1,0.58,NA,0,filler_good,Hanako said: Ryan didn't expect that Leon heard the news.,111,NA,21095,acceptability,4,expect,,
37,condition1,0.75,NA,1,filler_good,Hanako said: Sebrina didn't suspect that James would cancel the trip.,110,NA,22674,acceptability,5,suspect,,
37,condition1,NA,embed,1,say,<u>Hanako said: Hannah didn't say that George emailed the students.</u>,301,"Who George emailed, according to Hannah.",19444,backgroundedness,6,say,,
37,condition1,NA,embed,1,filler_bad,<u>Hanako said: Ted didn't insist that Eva's uncle should stay for dinner.</u>,124,"Whose uncle should stay for dinner, as Tedd insisted.",16362,backgroundedness,7,insist,,
37,condition1,0.74,NA,1,mos,Hanako said: Chandler didn't moan that Tia brought her parents.,12,NA,12802,acceptability,8,moan,,
37,condition1,0.82,NA,2,mos,Hanako said: Howard didn't mumble that Alex bought a birthday cake.,3,NA,11440,acceptability,9,mumble,,
37,condition1,NA,embed,2,filler_bad,<u>Hanako said: Jamal didn't expect that the book about astronomy was on the shelf.</u>,123,Which book Jamal expected to be on the shelf.,15378,backgroundedness,10,expect,,
37,condition1,0.8,NA,2,say,Hanako said: Danny didn't say that Jennifer got a cat.,308,NA,8790,acceptability,11,say,,
37,condition1,NA,embed,2,filler_good,<u>Hanako said: Ronald didn't imply that Jacy rented the truck.</u>,106,Who implied that Jacy rented the truck.,17725,backgroundedness,12,imply,,
37,condition1,NA,embed,3,filler_good,<u>Hanako said: Grace didn't suggest that Karen wrote a book.</u>,102,"What Karen wrote, according to Grace.",12977,backgroundedness,13,suggest,,
37,condition1,0.1,NA,3,filler_bad,Hanako said: Amelia didn't suggest that Frank and Lisa were in the office.,117,NA,10295,acceptability,14,suggest,,
37,condition1,NA,embed,3,mos,<u>Hanako said: Fatima didn't murmur that Omar had dinner with his manager.</u>,10,"Who Omar had dinner with, according to Fatima.",11116,backgroundedness,15,murmur,,
37,condition1,0.63,NA,3,say,Hanako said: Nancy didn't say that Julian ate the cupcake.,309,NA,16262,acceptability,16,say,,
37,condition1,NA,embed,4,say,<u>Hanako said: Emily didn't say that Paul drafted the letter.</u>,302,"What Paul drafted, according to Emily.",12296,backgroundedness,17,say,,
37,condition1,NA,embed,4,filler_good,<u>Hanako said: Matthew didn't hope that Dana brought a gift.</u>,107,Who hoped that Dana brought a gift.,7333,backgroundedness,18,hope,,
37,condition1,0.75,NA,4,mos,Hanako said: Yash didn't whine that Ming forgot her phone. ,9,NA,9792,acceptability,19,whine,,
37,condition1,0.2,NA,4,filler_bad,Hanako said: Donald didn't reveal that the parents of Krishna were moving to Texas. ,122,NA,12333,acceptability,20,reveal,,
37,condition1,0.86,NA,5,filler_good,Hanako said: Ollie didn't think that Doug would invite the mayor.,101,NA,6988,acceptability,21,think,,
37,condition1,0.45,NA,5,filler_bad,Hanako said: Rui didn't imply that Carol's brother signed the contract.,119,NA,12009,acceptability,22,imply,,
37,condition1,NA,embed,5,mos,<u>Hanako said: Emma didn't stammer that Kevin lost the keys.</u>,2,"What Kevin lost, according to Emma.",9908,backgroundedness,23,stammer,,
37,condition1,NA,embed,5,say,<u>Hanako said: Ben didn't say that Laura ordered pizza.</u>,307,"What Laura ordered, according to Ben.",13010,backgroundedness,24,say,,
37,condition1,NA,embed,6,say,<u>Hanako said: Tim didn't say that Jason drank the beer. </u>,304,"What Jason drank, according to Tim.",8877,backgroundedness,25,say,,
37,condition1,NA,embed,6,mos,<u>Hanako said: Jake didn't yell that Yumi found the wallet.</u>,7,"What Yumi found, according to Jake.",10813,backgroundedness,26,yell,,
37,condition1,0.32,NA,6,filler_bad,Hanako said: Jessie didn't guess that the assistant to the director would give the presentation.,121,NA,11663,acceptability,27,guess,,
37,condition1,0.83,NA,6,filler_good,Hanako said: Julie didn't guess that Charlie received a message.,108,NA,7305,acceptability,28,guess,,
37,condition1,0.58,NA,7,mos,Hanako said: Amy didn't scream that Charlie saw the robber.,6,NA,6621,acceptability,29,scream,,
37,condition1,0.86,NA,7,say,Hanako said: Tom didn't say that Sarah admired her friend. ,311,NA,5808,acceptability,30,say,,
37,condition1,NA,embed,7,filler_bad,<u>Hanako said: Helen didn't think that Rob and Marc cut the bread. </u>,113,"Who else cut the bread other than Rob, according to Helen.",10125,backgroundedness,31,think,,
37,condition1,NA,embed,7,filler_good,<u>Hanako said: Juliet didn't confirm that Sebastian would come to the party.</u>,112,Who confirmed that Sebastian would come to the party.,15970,backgroundedness,32,confirm,,
37,condition1,0.88,NA,8,filler_good,Hanako said: Jess didn't reveal that Todd went out with Betty.,109,NA,7321,acceptability,33,reveal,,
37,condition1,0.7,NA,8,say,Hanako said: Noah didn't say that Sharon wanted a dog.,312,NA,8080,acceptability,34,say,,
37,condition1,NA,embed,8,filler_bad,<u>Hanako said: Michael didn't speculate that Robert and Eric would leave the team.</u>,118,Who else would leave the team other than Robert.,25336,backgroundedness,35,spectulate,,
37,condition1,NA,embed,8,mos,<u>Hanako said: Bill didn't shout that Dan knew the professor.</u>,5,"Who Dan knew, according to Bill.",7139,backgroundedness,36,shout,,
37,condition1,0.44,NA,9,filler_bad,Hanako said: Frankie didn't hope that the agent of the guitarist would show up. ,120,NA,8398,acceptability,37,hope,,
37,condition1,0.78,NA,9,mos,Hanako said: John didn't whisper that Mary met with the lawyer.,1,NA,12367,acceptability,38,whisper,,
37,condition1,NA,embed,9,say,<u>Hanako said: Sally didn't say that Tony would visit George.</u>,303,"Who Tony would, according to Sally.",7768,backgroundedness,39,say,,
37,condition1,NA,embed,9,filler_good,<u>Hanako said: Selena didn't speculate that Justin would buy the house.</u>,105,"What Justin would buy, according to Selena.",13677,backgroundedness,40,spectulate,,
37,condition1,0.75,NA,10,filler_good,Hanako said: Jean didn't believe that Grant adopted a kitten.,103,NA,8763,acceptability,41,believe,,
37,condition1,NA,embed,10,say,<u>Hanako said: Jessie didn't say that Michelle borrowed the computer.</u>,310,"What Michelle borrowed, according to Jessie.",9221,backgroundedness,42,say,,
37,condition1,NA,embed,10,mos,<u>Hanako said: Igor didn't shriek that Penny won the lottery.</u>,11,"What Penny won, according to Igor.",7526,backgroundedness,43,shriek,,
37,condition1,0.12,NA,10,filler_bad,Hanako said: Tim didn't suspect that Liz and Jason drank the beer. ,114,NA,12111,acceptability,44,suspect,,
37,condition1,0.78,NA,11,mos,Hanako said: Laura didn't mutter that Brandon broke his laptop.,4,NA,9080,acceptability,45,mutter,,
37,condition1,0.85,NA,11,filler_good,Hanako said: Roger didn't expect that Andy would take the jacket.,104,NA,7813,acceptability,46,expect,,
37,condition1,NA,embed,11,say,<u>Hanako said: Charlie didn't say that Maddie would call her roommate.</u>,305,"Who Maddie would call, according to Charlie.",8081,backgroundedness,47,say,,
37,condition1,NA,embed,11,filler_bad,<u>Hanako said: Ben didn't expect that Judith and Eleanor would solve the puzzle.</u>,116,Who else would solve the puzzle other than Judith.,12079,backgroundedness,48,expect,,
50,condition1,0.97,NA,practice,practice_acceptability_good_1,Hanako said: Fiona didn't buy pineapples.,201,,,acceptability,0,NA,0,
50,condition1,NA,correct,practice,practice_bg_good_2,<u>Hanako said: Vera didn't drive to Michigan.</u>,202,How Vera travelled to Michigan.,,backgroundedness,0,NA,,
50,condition1,0.02,NA,practice,practice_accpetability_bad_2,Hanako said: Prisha doesn't speak Korean.,204,,,acceptability,0,NA,0,
50,condition1,NA,correct,practice,practice_bg_bad_1,<u>Hanako said: Hank didn't buy the red car.</u>,203,Which car Hank bought.,,backgroundedness,0,NA,,
50,condition1,NA,verb,0,filler_bad,<u>Hanako said: Rui didn't imply that Carol's brother signed the contract.</u>,119,"What Carol's brother signed, according to Rui.",23305,backgroundedness,1,imply,,
50,condition1,0.97,NA,0,say,Hanako said: Danny didn't say that Jennifer got a cat.,308,NA,14222,acceptability,2,say,,
50,condition1,0.95,NA,0,filler_good,Hanako said: Selena didn't speculate that Justin would buy the house.,105,NA,7525,acceptability,3,spectulate,,
50,condition1,NA,verb,0,mos,<u>Hanako said: Igor didn't shriek that Penny won the lottery.</u>,11,The way Igor communicated that Penny won the lottery.,12656,backgroundedness,4,shriek,,
50,condition1,0.84,NA,1,filler_good,Hanako said: Ryan didn't expect that Leon heard the news.,111,NA,11878,acceptability,5,expect,,
50,condition1,0.91,NA,1,mos,Hanako said: Jake didn't yell that Yumi found the wallet.,7,NA,8949,acceptability,6,yell,,
50,condition1,NA,verb,1,filler_bad,<u>Hanako said: Michael didn't speculate that Robert and Eric would leave the team.</u>,118,Who spculated that Eric would leave the team.,30048,backgroundedness,7,spectulate,,
50,condition1,NA,embed,1,say,<u>Hanako said: Sally didn't say that Tony would visit George.</u>,303,"Who Tony would, according to Sally.",18090,backgroundedness,8,say,,
50,condition1,0.86,NA,2,mos,Hanako said: Amy didn't scream that Charlie saw the robber.,6,NA,7941,acceptability,9,scream,,
50,condition1,0.86,NA,2,say,Hanako said: Noah didn't say that Sharon wanted a dog.,312,NA,8359,acceptability,10,say,,
50,condition1,NA,embed,2,filler_good,<u>Hanako said: Ollie didn't think that Doug would invite the mayor.</u>,101,"Who Doug would invite, according to Ollie.",15394,backgroundedness,11,think,,
50,condition1,NA,verb,2,filler_bad,<u>Hanako said: Helen didn't think that Rob and Marc cut the bread. </u>,113,Who thought that Marc cut the bread.,25848,backgroundedness,12,think,,
50,condition1,NA,embed,3,mos,<u>Hanako said: Laura didn't mutter that Brandon broke his laptop.</u>,4,"What Brandon broke, according to Laura.",23590,backgroundedness,13,mutter,,
50,condition1,NA,verb,3,filler_bad,<u>Hanako said: Donald didn't reveal that the parents of Krishna were moving to Texas. </u>,122,"Where Krishna's parents were moving to, according to Donald.",15148,backgroundedness,14,reveal,,
50,condition1,0.86,NA,3,say,Hanako said: Emily didn't say that Paul drafted the letter.,302,NA,7269,acceptability,15,say,,
50,condition1,0.78,NA,3,filler_good,Hanako said: Grace didn't suggest that Karen wrote a book.,102,NA,7471,acceptability,16,suggest,,
50,condition1,NA,verb,4,filler_bad,<u>Hanako said: Frankie didn't hope that the agent of the guitarist would show up. </u>,120,"What the agent of the guitarist did, according to Frankie.",13502,backgroundedness,17,hope,,
50,condition1,NA,verb,4,mos,<u>Hanako said: Yash didn't whine that Ming forgot her phone. </u>,9,The way Yash communicated that Ming forgot her phone.,9210,backgroundedness,18,whine,,
50,condition1,0.79,NA,4,say,Hanako said: Hannah didn't say that George emailed the students.,301,NA,8675,acceptability,19,say,,
50,condition1,0.81,NA,4,filler_good,Hanako said: Julie didn't guess that Charlie received a message.,108,NA,8075,acceptability,20,guess,,
50,condition1,0.07,NA,5,filler_bad,Hanakko said: Larry didn't believe that Karl and Nick cooked dinner.,115,NA,9202,acceptability,21,believe,,
50,condition1,NA,embed,5,say,<u>Hanako said: Nancy didn't say that Julian ate the cupcake.</u>,309,"What Julian ate, according to Nancy.",10381,backgroundedness,22,say,,
50,condition1,0.84,NA,5,filler_good,Hanako said: Matthew didn't hope that Dana brought a gift.,107,NA,6977,acceptability,23,hope,,
50,condition1,NA,embed,5,mos,<u>Hanako said: Bill didn't shout that Dan knew the professor.</u>,5,"Who Dan knew, according to Bill.",11250,backgroundedness,24,shout,,
50,condition1,0.52,NA,6,filler_good,Hanako said: Jean didn't believe that Grant adopted a kitten.,103,NA,25704,acceptability,25,believe,,
50,condition1,0.79,NA,6,mos,Hanako said: Ashley didn't groan that Hasan talked to the detectives.,8,NA,7861,acceptability,26,groan,,
50,condition1,NA,verb,6,filler_bad,<u>Hanako said: Amelia didn't suggest that Frank and Lisa were in the office.</u>,117,Who suggested that Lisa was in the office.,19941,backgroundedness,27,suggest,,
50,condition1,NA,verb,6,say,<u>Hanako said: Charlie didn't say that Maddie would call her roommate.</u>,305,The way Charlie communicated that Maddie would call her roommate.,11629,backgroundedness,28,say,,
50,condition1,0.78,NA,7,mos,Hanako said: Howard didn't mumble that Alex bought a birthday cake.,3,NA,6259,acceptability,29,mumble,,
50,condition1,0.28,NA,7,filler_bad,Hanako said: Ben didn't expect that Judith and Eleanor would solve the puzzle.,116,NA,17374,acceptability,30,expect,,
50,condition1,NA,embed,7,say,<u>Hanako said: Ben didn't say that Laura ordered pizza.</u>,307,"What Laura ordered, according to Ben.",9508,backgroundedness,31,say,,
50,condition1,NA,verb,7,filler_good,<u>Hanako said: Juliet didn't confirm that Sebastian would come to the party.</u>,112,"Who would come to the party, according to Juliet.",12199,backgroundedness,32,confirm,,
50,condition1,NA,verb,8,filler_good,<u>Hanako said: Roger didn't expect that Andy would take the jacket.</u>,104,"Who would take the jacket, according to Roger.",11441,backgroundedness,33,expect,,
50,condition1,0.77,NA,8,say,Hanako said: Jessie didn't say that Michelle borrowed the computer.,310,NA,7581,acceptability,34,say,,
50,condition1,0.25,NA,8,filler_bad,Hanako said: Jessie didn't guess that the assistant to the director would give the presentation.,121,NA,12247,acceptability,35,guess,,
50,condition1,NA,embed,8,mos,<u>Hanako said: Chandler didn't moan that Tia brought her parents.</u>,12,"Who Tia brought, according to Chandler.",11825,backgroundedness,36,moan,,
50,condition1,NA,verb,9,say,<u>Hanako said: Tim didn't say that Jason drank the beer. </u>,304,The way Tim communicated that Jason drank the beer.,10425,backgroundedness,37,say,,
50,condition1,0.87,NA,9,filler_good,Hanako said: Jess didn't reveal that Todd went out with Betty.,109,NA,7587,acceptability,38,reveal,,
50,condition1,0.77,NA,9,mos,Hanako said: Fatima didn't murmur that Omar had dinner with his manager.,10,NA,8449,acceptability,39,murmur,,
50,condition1,NA,verb,9,filler_bad,<u>Hanako said: Tim didn't suspect that Liz and Jason drank the beer. </u>,114,Who suspected that Jason drank the beer.,13103,backgroundedness,40,suspect,,
50,condition1,0.77,NA,10,say,Hanako said: Kate didn't say that Zack broke the plates.,306,NA,7516,acceptability,41,say,,
50,condition1,NA,verb,10,filler_good,<u>Hanako said: Ronald didn't imply that Jacy rented the truck.</u>,106,"What Jacy rented, according to Ronald.",8374,backgroundedness,42,imply,,
50,condition1,NA,verb,10,mos,<u>Hanako said: Emma didn't stammer that Kevin lost the keys.</u>,2,The way Emma communicated that Kevin lost the keys.,10940,backgroundedness,43,stammer,,
50,condition1,0.24,NA,10,filler_bad,Hanako said: Ted didn't insist that Eva's uncle should stay for dinner.,124,NA,7899,acceptability,44,insist,,
50,condition1,0.23,NA,11,filler_bad,Hanako said: Jamal didn't expect that the book about astronomy was on the shelf.,123,NA,8785,acceptability,45,expect,,
50,condition1,NA,verb,11,mos,<u>Hanako said: John didn't whisper that Mary met with the lawyer.</u>,1,The way John communicated that Mary met with the lawyer.,11150,backgroundedness,46,whisper,,
50,condition1,0.8,NA,11,filler_good,Hanako said: Sebrina didn't suspect that James would cancel the trip.,110,NA,9201,acceptability,47,suspect,,
50,condition1,NA,verb,11,say,<u>Hanako said: Tom didn't say that Sarah admired her friend. </u>,311,The way Tom communicated that Sarah admired her friend.,10114,backgroundedness,48,say,,
134,condition1,1,NA,practice,practice_acceptability_good_1,Hanako said: Fiona didn't buy pineapples.,201,,,acceptability,0,NA,0,
134,condition1,NA,correct,practice,practice_bg_good_2,<u>Hanako said: Vera didn't drive to Michigan.</u>,202,How Vera travelled to Michigan.,,backgroundedness,0,NA,,
134,condition1,0,NA,practice,practice_accpetability_bad_2,Hanako said: Prisha doesn't speak Korean.,204,,,acceptability,0,NA,0,
134,condition1,NA,correct,practice,practice_bg_bad_1,<u>Hanako said: Hank didn't buy the red car.</u>,203,Which car Hank bought.,,backgroundedness,0,NA,,
134,condition1,0.02,NA,0,filler_bad,Hanako said: Amelia didn't suggest that Frank and Lisa were in the office.,117,NA,47699,acceptability,1,suggest,,
134,condition1,NA,embed,0,filler_good,<u>Hanako said: Selena didn't speculate that Justin would buy the house.</u>,105,"What Justin would buy, according to Selena.",35140,backgroundedness,2,spectulate,,
134,condition1,0.66,NA,0,say,Hanako said: Emily didn't say that Paul drafted the letter.,302,NA,16216,acceptability,3,say,,
134,condition1,NA,embed,0,mos,<u>Hanako said: Fatima didn't murmur that Omar had dinner with his manager.</u>,10,"Who Omar had dinner with, according to Fatima.",30479,backgroundedness,4,murmur,,
134,condition1,1,NA,1,say,Hanako said: Hannah didn't say that George emailed the students.,301,NA,17212,acceptability,5,say,,
134,condition1,NA,embed,1,filler_bad,<u>Hanakko said: Larry didn't believe that Karl and Nick cooked dinner.</u>,115,"Who else cooked dinner other than Karl, according to Larry.",25357,backgroundedness,6,believe,,
134,condition1,1,NA,1,filler_good,Hanako said: Juliet didn't confirm that Sebastian would come to the party.,112,NA,14656,acceptability,7,confirm,,
134,condition1,NA,embed,1,mos,<u>Hanako said: Howard didn't mumble that Alex bought a birthday cake.</u>,3,"What Alex bought, according to Howard.",19852,backgroundedness,8,mumble,,
134,condition1,0.1,NA,2,filler_bad,Hanako said: Helen didn't think that Rob and Marc cut the bread. ,113,NA,91143,acceptability,9,think,,
134,condition1,NA,embed,2,say,<u>Hanako said: Danny didn't say that Jennifer got a cat.</u>,308,"What Jennifer got, according to Danny.",18581,backgroundedness,10,say,,
134,condition1,NA,verb,2,mos,<u>Hanako said: Igor didn't shriek that Penny won the lottery.</u>,11,The way Igor communicated that Penny won the lottery.,70348,backgroundedness,11,shriek,,
134,condition1,0.61,NA,2,filler_good,Hanako said: Matthew didn't hope that Dana brought a gift.,107,NA,21808,acceptability,12,hope,,
134,condition1,0,NA,3,filler_bad,Hanako said: Tim didn't suspect that Liz and Jason drank the beer. ,114,NA,22598,acceptability,13,suspect,,
134,condition1,1,NA,3,say,Hanako said: Ben didn't say that Laura ordered pizza.,307,NA,50732,acceptability,14,say,,
134,condition1,NA,embed,3,filler_good,<u>Hanako said: Ryan didn't expect that Leon heard the news.</u>,111,"What Leon heard, according to Ryan.",76092,backgroundedness,15,expect,,
134,condition1,NA,verb,3,mos,<u>Hanako said: Chandler didn't moan that Tia brought her parents.</u>,12,The way Chandler communicated that Tia brought her parents.,71153,backgroundedness,16,moan,,
134,condition1,NA,embed,4,filler_bad,<u>Hanako said: Michael didn't speculate that Robert and Eric would leave the team.</u>,118,Who else would leave the team other than Robert.,58503,backgroundedness,17,spectulate,,
134,condition1,1,NA,4,mos,Hanako said: Laura didn't mutter that Brandon broke his laptop.,4,NA,26692,acceptability,18,mutter,,
134,condition1,NA,verb,4,filler_good,<u>Hanako said: Grace didn't suggest that Karen wrote a book.</u>,102,"Who wrote a book, according to Grace.",21465,backgroundedness,19,suggest,,
134,condition1,1,NA,4,say,Hanako said: Noah didn't say that Sharon wanted a dog.,312,NA,18859,acceptability,20,say,,
134,condition1,NA,verb,5,mos,<u>Hanako said: Ashley didn't groan that Hasan talked to the detectives.</u>,8,The way Ashley communicated that Hasan talked to the detectives.,112321,backgroundedness,21,groan,,
134,condition1,NA,embed,5,filler_bad,<u>Hanako said: Jessie didn't guess that the assistant to the director would give the presentation.</u>,121,"Whose assistant would give the presentation, as Jessie guessed.",50152,backgroundedness,22,guess,,
134,condition1,1,NA,5,filler_good,Hanako said: Roger didn't expect that Andy would take the jacket.,104,NA,45695,acceptability,23,expect,,
134,condition1,1,NA,5,say,Hanako said: Tom didn't say that Sarah admired her friend. ,311,NA,13312,acceptability,24,say,,
134,condition1,NA,embed,6,filler_good,<u>Hanako said: Jean didn't believe that Grant adopted a kitten.</u>,103,"What Grant adopted, according to Jean.",17744,backgroundedness,25,believe,,
134,condition1,1,NA,6,say,Hanako said: Jessie didn't say that Michelle borrowed the computer.,310,NA,13853,acceptability,26,say,,
134,condition1,NA,embed,6,mos,<u>Hanako said: John didn't whisper that Mary met with the lawyer.</u>,1,"Who Mary met with, according to John.",26152,backgroundedness,27,whisper,,
134,condition1,0,NA,6,filler_bad,Hanako said: Jamal didn't expect that the book about astronomy was on the shelf.,123,NA,17540,acceptability,28,expect,,
134,condition1,0.51,NA,7,mos,Hanako said: Bill didn't shout that Dan knew the professor.,5,NA,9391,acceptability,29,shout,,
134,condition1,0.07,NA,7,filler_bad,Hanako said: Frankie didn't hope that the agent of the guitarist would show up. ,120,NA,13203,acceptability,30,hope,,
134,condition1,NA,embed,7,say,<u>Hanako said: Nancy didn't say that Julian ate the cupcake.</u>,309,"What Julian ate, according to Nancy.",25497,backgroundedness,31,say,,
134,condition1,NA,embed,7,filler_good,<u>Hanako said: Jess didn't reveal that Todd went out with Betty.</u>,109,Who revealed that Todd went out with Betty.,47124,backgroundedness,32,reveal,,
134,condition1,NA,verb,8,say,<u>Hanako said: Kate didn't say that Zack broke the plates.</u>,306,The way Kate communicated that Zack broke the plates.,29428,backgroundedness,33,say,,
134,condition1,0.77,NA,8,mos,Hanako said: Emma didn't stammer that Kevin lost the keys.,2,NA,35519,acceptability,34,stammer,,
134,condition1,0,NA,8,filler_bad,Hanako said: Rui didn't imply that Carol's brother signed the contract.,119,NA,19259,acceptability,35,imply,,
134,condition1,NA,embed,8,filler_good,<u>Hanako said: Ollie didn't think that Doug would invite the mayor.</u>,101,"Who Doug would invite, according to Ollie.",11162,backgroundedness,36,think,,
134,condition1,1,NA,9,filler_good,Hanako said: Sebrina didn't suspect that James would cancel the trip.,110,NA,6706,acceptability,37,suspect,,
134,condition1,NA,verb,9,filler_bad,<u>Hanako said: Ted didn't insist that Eva's uncle should stay for dinner.</u>,124,"What Eva's uncle should do, according to Ted.",17340,backgroundedness,38,insist,,
134,condition1,1,NA,9,mos,Hanako said: Yash didn't whine that Ming forgot her phone. ,9,NA,6208,acceptability,39,whine,,
134,condition1,NA,embed,9,say,<u>Hanako said: Charlie didn't say that Maddie would call her roommate.</u>,305,"Who Maddie would call, according to Charlie.",26236,backgroundedness,40,say,,
134,condition1,0,NA,10,filler_bad,Hanako said: Donald didn't reveal that the parents of Krishna were moving to Texas. ,122,NA,8151,acceptability,41,reveal,,
134,condition1,1,NA,10,say,Hanako said: Sally didn't say that Tony would visit George.,303,NA,5264,acceptability,42,say,,
134,condition1,NA,embed,10,mos,<u>Hanako said: Amy didn't scream that Charlie saw the robber.</u>,6,"Who Charlie saw, according to Amy.",8976,backgroundedness,43,scream,,
134,condition1,NA,verb,10,filler_good,<u>Hanako said: Ronald didn't imply that Jacy rented the truck.</u>,106,"What Jacy rented, according to Ronald.",12337,backgroundedness,44,imply,,
134,condition1,NA,verb,11,say,<u>Hanako said: Tim didn't say that Jason drank the beer. </u>,304,The way Tim communicated that Jason drank the beer.,12575,backgroundedness,45,say,,
134,condition1,NA,verb,11,mos,<u>Hanako said: Jake didn't yell that Yumi found the wallet.</u>,7,The way Jake communicated that Yumi found the wallet.,8165,backgroundedness,46,yell,,
134,condition1,1,NA,11,filler_good,Hanako said: Julie didn't guess that Charlie received a message.,108,NA,5099,acceptability,47,guess,,
134,condition1,0,NA,11,filler_bad,Hanako said: Ben didn't expect that Judith and Eleanor would solve the puzzle.,116,NA,10545,acceptability,48,expect,,
38,condition1,0.78,NA,practice,practice_acceptability_good_1,Hanako said: Fiona didn't buy pineapples.,201,,,acceptability,0,NA,0,
38,condition1,NA,correct,practice,practice_bg_good_2,<u>Hanako said: Vera didn't drive to Michigan.</u>,202,How Vera travelled to Michigan.,,backgroundedness,0,NA,,
38,condition1,0.06,NA,practice,practice_accpetability_bad_2,Hanako said: Prisha doesn't speak Korean.,204,,,acceptability,0,NA,0,
38,condition1,NA,correct,practice,practice_bg_bad_1,<u>Hanako said: Hank didn't buy the red car.</u>,203,Which car Hank bought.,,backgroundedness,0,NA,,
38,condition1,NA,embed,0,filler_good,<u>Hanako said: Ryan didn't expect that Leon heard the news.</u>,111,"What Leon heard, according to Ryan.",46761,backgroundedness,1,expect,,
38,condition1,0.63,NA,0,say,Hanako said: Nancy didn't say that Julian ate the cupcake.,309,NA,10515,acceptability,2,say,,
38,condition1,0.05,NA,0,filler_bad,Hanako said: Tim didn't suspect that Liz and Jason drank the beer. ,114,NA,54299,acceptability,3,suspect,,
38,condition1,NA,verb,0,mos,<u>Hanako said: Igor didn't shriek that Penny won the lottery.</u>,11,The way Igor communicated that Penny won the lottery.,28839,backgroundedness,4,shriek,,
38,condition1,0.9,NA,1,filler_bad,Hanako said: Jessie didn't guess that the assistant to the director would give the presentation.,121,NA,20581,acceptability,5,guess,,
38,condition1,NA,verb,1,mos,<u>Hanako said: Howard didn't mumble that Alex bought a birthday cake.</u>,3,The way Howard communicated that Alex bought a birthday cake.,23808,backgroundedness,6,mumble,,
38,condition1,0.87,NA,1,filler_good,Hanako said: Ollie didn't think that Doug would invite the mayor.,101,NA,15175,acceptability,7,think,,
38,condition1,NA,embed,1,say,<u>Hanako said: Tom didn't say that Sarah admired her friend. </u>,311,"Who Sarah admired, according to Tom.",49081,backgroundedness,8,say,,
38,condition1,NA,embed,2,say,<u>Hanako said: Danny didn't say that Jennifer got a cat.</u>,308,"What Jennifer got, according to Danny.",11520,backgroundedness,9,say,,
38,condition1,0.12,NA,2,filler_bad,Hanako said: Helen didn't think that Rob and Marc cut the bread. ,113,NA,38873,acceptability,10,think,,
38,condition1,NA,embed,2,mos,<u>Hanako said: Amy didn't scream that Charlie saw the robber.</u>,6,"Who Charlie saw, according to Amy.",26639,backgroundedness,11,scream,,
38,condition1,0.9,NA,2,filler_good,Hanako said: Roger didn't expect that Andy would take the jacket.,104,NA,17811,acceptability,12,expect,,
38,condition1,NA,embed,3,filler_good,<u>Hanako said: Juliet didn't confirm that Sebastian would come to the party.</u>,112,Who confirmed that Sebastian would come to the party.,19603,backgroundedness,13,confirm,,
38,condition1,0.05,NA,3,filler_bad,Hanako said: Donald didn't reveal that the parents of Krishna were moving to Texas. ,122,NA,16760,acceptability,14,reveal,,
38,condition1,NA,embed,3,say,<u>Hanako said: Hannah didn't say that George emailed the students.</u>,301,"Who George emailed, according to Hannah.",30552,backgroundedness,15,say,,
38,condition1,0.73,NA,3,mos,Hanako said: Ashley didn't groan that Hasan talked to the detectives.,8,NA,39743,acceptability,16,groan,,
38,condition1,0.81,NA,4,filler_good,Hanako said: Jess didn't reveal that Todd went out with Betty.,109,NA,14513,acceptability,17,reveal,,
38,condition1,NA,verb,4,mos,<u>Hanako said: Jake didn't yell that Yumi found the wallet.</u>,7,The way Jake communicated that Yumi found the wallet.,23418,backgroundedness,18,yell,,
38,condition1,NA,verb,4,filler_bad,<u>Hanakko said: Larry didn't believe that Karl and Nick cooked dinner.</u>,115,Who believed that Nick cooked dinner.,36879,backgroundedness,19,believe,,
38,condition1,0.9,NA,4,say,Hanako said: Ben didn't say that Laura ordered pizza.,307,NA,24448,acceptability,20,say,,
38,condition1,NA,embed,5,filler_bad,<u>Hanako said: Ted didn't insist that Eva's uncle should stay for dinner.</u>,124,"Whose uncle should stay for dinner, as Tedd insisted.",112185,backgroundedness,21,insist,,
38,condition1,NA,embed,5,mos,<u>Hanako said: Laura didn't mutter that Brandon broke his laptop.</u>,4,"What Brandon broke, according to Laura.",18509,backgroundedness,22,mutter,,
38,condition1,0.96,NA,5,filler_good,Hanako said: Jean didn't believe that Grant adopted a kitten.,103,NA,11255,acceptability,23,believe,,
38,condition1,0.89,NA,5,say,Hanako said: Tim didn't say that Jason drank the beer. ,304,NA,8952,acceptability,24,say,,
38,condition1,NA,embed,6,filler_good,<u>Hanako said: Selena didn't speculate that Justin would buy the house.</u>,105,"What Justin would buy, according to Selena.",10901,backgroundedness,25,spectulate,,
38,condition1,0.89,NA,6,say,Hanako said: Charlie didn't say that Maddie would call her roommate.,305,NA,9818,acceptability,26,say,,
38,condition1,0.11,NA,6,filler_bad,Hanako said: Frankie didn't hope that the agent of the guitarist would show up. ,120,NA,39265,acceptability,27,hope,,
38,condition1,NA,embed,6,mos,<u>Hanako said: Yash didn't whine that Ming forgot her phone. </u>,9,"What Ming forgot, according to Yash.",10460,backgroundedness,28,whine,,
38,condition1,NA,embed,7,mos,<u>Hanako said: Fatima didn't murmur that Omar had dinner with his manager.</u>,10,"Who Omar had dinner with, according to Fatima.",22856,backgroundedness,29,murmur,,
38,condition1,NA,embed,7,say,<u>Hanako said: Sally didn't say that Tony would visit George.</u>,303,"Who Tony would, according to Sally.",8517,backgroundedness,30,say,,
38,condition1,0.21,NA,7,filler_bad,Hanako said: Jamal didn't expect that the book about astronomy was on the shelf.,123,NA,18627,acceptability,31,expect,,
38,condition1,0.46,NA,7,filler_good,Hanako said: Julie didn't guess that Charlie received a message.,108,NA,18752,acceptability,32,guess,,
38,condition1,NA,embed,8,mos,<u>Hanako said: John didn't whisper that Mary met with the lawyer.</u>,1,"Who Mary met with, according to John.",22434,backgroundedness,33,whisper,,
38,condition1,NA,embed,8,filler_good,<u>Hanako said: Grace didn't suggest that Karen wrote a book.</u>,102,"What Karen wrote, according to Grace.",13204,backgroundedness,34,suggest,,
38,condition1,0.93,NA,8,say,Hanako said: Kate didn't say that Zack broke the plates.,306,NA,11004,acceptability,35,say,,
38,condition1,0.1,NA,8,filler_bad,Hanako said: Amelia didn't suggest that Frank and Lisa were in the office.,117,NA,10280,acceptability,36,suggest,,
38,condition1,0.74,NA,9,filler_good,Hanako said: Sebrina didn't suspect that James would cancel the trip.,110,NA,11801,acceptability,37,suspect,,
38,condition1,0.16,NA,9,filler_bad,Hanako said: Michael didn't speculate that Robert and Eric would leave the team.,118,NA,38842,acceptability,38,spectulate,,
38,condition1,NA,verb,9,mos,<u>Hanako said: Chandler didn't moan that Tia brought her parents.</u>,12,The way Chandler communicated that Tia brought her parents.,10315,backgroundedness,39,moan,,
38,condition1,NA,embed,9,say,<u>Hanako said: Emily didn't say that Paul drafted the letter.</u>,302,"What Paul drafted, according to Emily.",89658,backgroundedness,40,say,,
38,condition1,0.61,NA,10,filler_good,Hanako said: Ronald didn't imply that Jacy rented the truck.,106,NA,14145,acceptability,41,imply,,
38,condition1,NA,verb,10,mos,<u>Hanako said: Emma didn't stammer that Kevin lost the keys.</u>,2,The way Emma communicated that Kevin lost the keys.,13442,backgroundedness,42,stammer,,
38,condition1,NA,verb,10,filler_bad,<u>Hanako said: Rui didn't imply that Carol's brother signed the contract.</u>,119,"What Carol's brother signed, according to Rui.",32938,backgroundedness,43,imply,,
38,condition1,0.62,NA,10,say,Hanako said: Noah didn't say that Sharon wanted a dog.,312,NA,62350,acceptability,44,say,,
38,condition1,0.08,NA,11,filler_bad,Hanako said: Ben didn't expect that Judith and Eleanor would solve the puzzle.,116,NA,71311,acceptability,45,expect,,
38,condition1,NA,embed,11,filler_good,<u>Hanako said: Matthew didn't hope that Dana brought a gift.</u>,107,Who hoped that Dana brought a gift.,38122,backgroundedness,46,hope,,
38,condition1,NA,embed,11,say,<u>Hanako said: Jessie didn't say that Michelle borrowed the computer.</u>,310,"What Michelle borrowed, according to Jessie.",11629,backgroundedness,47,say,,
38,condition1,0.78,NA,11,mos,Hanako said: Bill didn't shout that Dan knew the professor.,5,NA,11902,acceptability,48,shout,,
40,condition1,0.88,NA,practice,practice_acceptability_good_1,Hanako said: Fiona didn't buy pineapples.,201,,,acceptability,0,NA,0,
40,condition1,NA,correct,practice,practice_bg_good_2,<u>Hanako said: Vera didn't drive to Michigan.</u>,202,How Vera travelled to Michigan.,,backgroundedness,0,NA,,
40,condition1,0.02,NA,practice,practice_accpetability_bad_2,Hanako said: Prisha doesn't speak Korean.,204,,,acceptability,0,NA,0,
40,condition1,NA,correct,practice,practice_bg_bad_1,<u>Hanako said: Hank didn't buy the red car.</u>,203,Which car Hank bought.,,backgroundedness,0,NA,,
40,condition1,0.01,NA,0,filler_bad,Hanako said: Helen didn't think that Rob and Marc cut the bread. ,113,NA,18485,acceptability,1,think,,
40,condition1,0.93,NA,0,say,Hanako said: Noah didn't say that Sharon wanted a dog.,312,NA,15287,acceptability,2,say,,
40,condition1,NA,verb,0,mos,<u>Hanako said: Ashley didn't groan that Hasan talked to the detectives.</u>,8,The way Ashley communicated that Hasan talked to the detectives.,78542,backgroundedness,3,groan,,
40,condition1,NA,verb,0,filler_good,<u>Hanako said: Ronald didn't imply that Jacy rented the truck.</u>,106,"What Jacy rented, according to Ronald.",18563,backgroundedness,4,imply,,
40,condition1,NA,verb,1,mos,<u>Hanako said: Laura didn't mutter that Brandon broke his laptop.</u>,4,The way Laura communicated that Brandon broke his laptop.,187267,backgroundedness,5,mutter,,
40,condition1,NA,embed,1,filler_good,<u>Hanako said: Ollie didn't think that Doug would invite the mayor.</u>,101,"Who Doug would invite, according to Ollie.",25219,backgroundedness,6,think,,
40,condition1,0.01,NA,1,filler_bad,Hanako said: Rui didn't imply that Carol's brother signed the contract.,119,NA,62524,acceptability,7,imply,,
40,condition1,0.81,NA,1,say,Hanako said: Hannah didn't say that George emailed the students.,301,NA,11831,acceptability,8,say,,
40,condition1,NA,verb,2,filler_good,<u>Hanako said: Juliet didn't confirm that Sebastian would come to the party.</u>,112,"Who would come to the party, according to Juliet.",20869,backgroundedness,9,confirm,,
40,condition1,0.01,NA,2,mos,Hanako said: Amy didn't scream that Charlie saw the robber.,6,NA,9863,acceptability,10,scream,,
40,condition1,NA,embed,2,say,<u>Hanako said: Tom didn't say that Sarah admired her friend. </u>,311,"Who Sarah admired, according to Tom.",11398,backgroundedness,11,say,,
40,condition1,0.4,NA,2,filler_bad,Hanako said: Michael didn't speculate that Robert and Eric would leave the team.,118,NA,63945,acceptability,12,spectulate,,
40,condition1,NA,verb,3,filler_good,<u>Hanako said: Matthew didn't hope that Dana brought a gift.</u>,107,"What Dana brought, according to Matthew.",48143,backgroundedness,13,hope,,
40,condition1,0.01,NA,3,filler_bad,Hanako said: Jessie didn't guess that the assistant to the director would give the presentation.,121,NA,43070,acceptability,14,guess,,
40,condition1,0.51,NA,3,say,Hanako said: Jessie didn't say that Michelle borrowed the computer.,310,NA,11382,acceptability,15,say,,
40,condition1,NA,verb,3,mos,<u>Hanako said: John didn't whisper that Mary met with the lawyer.</u>,1,The way John communicated that Mary met with the lawyer.,659042,backgroundedness,16,whisper,,
40,condition1,0.44,NA,4,filler_good,Hanako said: Sebrina didn't suspect that James would cancel the trip.,110,NA,79903,acceptability,17,suspect,,
40,condition1,NA,verb,4,mos,<u>Hanako said: Bill didn't shout that Dan knew the professor.</u>,5,The way Bill communicated that Dan knew the professor.,12197,backgroundedness,18,shout,,
40,condition1,NA,verb,4,say,<u>Hanako said: Emily didn't say that Paul drafted the letter.</u>,302,The way Emily communicated that Paul drafted the letter.,10777,backgroundedness,19,say,,
40,condition1,0.04,NA,4,filler_bad,Hanako said: Ted didn't insist that Eva's uncle should stay for dinner.,124,NA,8059,acceptability,20,insist,,
40,condition1,0.37,NA,5,filler_good,Hanako said: Grace didn't suggest that Karen wrote a book.,102,NA,15015,acceptability,21,suggest,,
40,condition1,NA,verb,5,say,<u>Hanako said: Tim didn't say that Jason drank the beer. </u>,304,The way Tim communicated that Jason drank the beer.,63078,backgroundedness,22,say,,
40,condition1,0.07,NA,5,filler_bad,Hanako said: Jamal didn't expect that the book about astronomy was on the shelf.,123,NA,101038,acceptability,23,expect,,
40,condition1,NA,verb,5,mos,<u>Hanako said: Howard didn't mumble that Alex bought a birthday cake.</u>,3,The way Howard communicated that Alex bought a birthday cake.,13759,backgroundedness,24,mumble,,
40,condition1,0.87,NA,6,say,Hanako said: Sally didn't say that Tony would visit George.,303,NA,16198,acceptability,25,say,,
40,condition1,0.37,NA,6,mos,Hanako said: Chandler didn't moan that Tia brought her parents.,12,NA,7931,acceptability,26,moan,,
40,condition1,NA,verb,6,filler_bad,<u>Hanako said: Amelia didn't suggest that Frank and Lisa were in the office.</u>,117,Who suggested that Lisa was in the office.,89761,backgroundedness,27,suggest,,
40,condition1,NA,embed,6,filler_good,<u>Hanako said: Selena didn't speculate that Justin would buy the house.</u>,105,"What Justin would buy, according to Selena.",14261,backgroundedness,28,spectulate,,
40,condition1,0.04,NA,7,mos,Hanako said: Igor didn't shriek that Penny won the lottery.,11,NA,15783,acceptability,29,shriek,,
40,condition1,NA,verb,7,filler_bad,<u>Hanako said: Frankie didn't hope that the agent of the guitarist would show up. </u>,120,"What the agent of the guitarist did, according to Frankie.",22769,backgroundedness,30,hope,,
40,condition1,0.26,NA,7,say,Hanako said: Ben didn't say that Laura ordered pizza.,307,NA,9225,acceptability,31,say,,
40,condition1,NA,embed,7,filler_good,<u>Hanako said: Jean didn't believe that Grant adopted a kitten.</u>,103,"What Grant adopted, according to Jean.",15945,backgroundedness,32,believe,,
40,condition1,0.14,NA,8,filler_good,Hanako said: Julie didn't guess that Charlie received a message.,108,NA,8293,acceptability,33,guess,,
40,condition1,NA,verb,8,filler_bad,<u>Hanako said: Donald didn't reveal that the parents of Krishna were moving to Texas. </u>,122,"Where Krishna's parents were moving to, according to Donald.",18671,backgroundedness,34,reveal,,
40,condition1,0.24,NA,8,mos,Hanako said: Jake didn't yell that Yumi found the wallet.,7,NA,153275,acceptability,35,yell,,
40,condition1,NA,embed,8,say,<u>Hanako said: Danny didn't say that Jennifer got a cat.</u>,308,"What Jennifer got, according to Danny.",14128,backgroundedness,36,say,,
40,condition1,0.68,NA,9,filler_good,Hanako said: Roger didn't expect that Andy would take the jacket.,104,NA,159328,acceptability,37,expect,,
40,condition1,NA,verb,9,mos,<u>Hanako said: Emma didn't stammer that Kevin lost the keys.</u>,2,The way Emma communicated that Kevin lost the keys.,14611,backgroundedness,38,stammer,,
40,condition1,0.02,NA,9,filler_bad,Hanakko said: Larry didn't believe that Karl and Nick cooked dinner.,115,NA,3441672,acceptability,39,believe,,
40,condition1,NA,embed,9,say,<u>Hanako said: Kate didn't say that Zack broke the plates.</u>,306,"What Zack broke, according to Kate.",12360,backgroundedness,40,say,,
40,condition1,NA,verb,10,filler_bad,<u>Hanako said: Ben didn't expect that Judith and Eleanor would solve the puzzle.</u>,116,Who expected that Eleanor would solve the puzzle.,41167,backgroundedness,41,expect,,
40,condition1,NA,verb,10,mos,<u>Hanako said: Yash didn't whine that Ming forgot her phone. </u>,9,The way Yash communicated that Ming forgot her phone.,13689,backgroundedness,42,whine,,
40,condition1,0.16,NA,10,filler_good,Hanako said: Ryan didn't expect that Leon heard the news.,111,NA,24666,acceptability,43,expect,,
40,condition1,0.73,NA,10,say,Hanako said: Charlie didn't say that Maddie would call her roommate.,305,NA,28180,acceptability,44,say,,
40,condition1,0.47,NA,11,mos,Hanako said: Fatima didn't murmur that Omar had dinner with his manager.,10,NA,10586,acceptability,45,murmur,,
40,condition1,0.2,NA,11,filler_good,Hanako said: Jess didn't reveal that Todd went out with Betty.,109,NA,8269,acceptability,46,reveal,,
40,condition1,NA,embed,11,say,<u>Hanako said: Nancy didn't say that Julian ate the cupcake.</u>,309,"What Julian ate, according to Nancy.",8134,backgroundedness,47,say,,
40,condition1,NA,verb,11,filler_bad,<u>Hanako said: Tim didn't suspect that Liz and Jason drank the beer. </u>,114,Who suspected that Jason drank the beer.,61805,backgroundedness,48,suspect,,
46,condition1,0.65,NA,practice,practice_acceptability_good_1,Hanako said: Fiona didn't buy pineapples.,201,,,acceptability,0,NA,0,
46,condition1,NA,incorrect,practice,practice_bg_good_2,<u>Hanako said: Vera didn't drive to Michigan.</u>,202,Where Vera drove to.,,backgroundedness,0,NA,,
46,condition1,0.32,NA,practice,practice_accpetability_bad_2,Hanako said: Prisha doesn't speak Korean.,204,,,acceptability,0,NA,0,
46,condition1,NA,correct,practice,practice_bg_bad_1,<u>Hanako said: Hank didn't buy the red car.</u>,203,Which car Hank bought.,,backgroundedness,0,NA,,
46,condition1,NA,embed,0,filler_good,<u>Hanako said: Jean didn't believe that Grant adopted a kitten.</u>,103,"What Grant adopted, according to Jean.",19945,backgroundedness,1,believe,,
46,condition1,0.41,NA,0,mos,Hanako said: Ashley didn't groan that Hasan talked to the detectives.,8,NA,9506,acceptability,2,groan,,
46,condition1,NA,embed,0,say,<u>Hanako said: Kate didn't say that Zack broke the plates.</u>,306,"What Zack broke, according to Kate.",17976,backgroundedness,3,say,,
46,condition1,0.22,NA,0,filler_bad,Hanako said: Frankie didn't hope that the agent of the guitarist would show up. ,120,NA,14292,acceptability,4,hope,,
46,condition1,NA,embed,1,filler_good,<u>Hanako said: Ollie didn't think that Doug would invite the mayor.</u>,101,"Who Doug would invite, according to Ollie.",18207,backgroundedness,5,think,,
46,condition1,0.57,NA,1,say,Hanako said: Hannah didn't say that George emailed the students.,301,NA,8088,acceptability,6,say,,
46,condition1,NA,verb,1,filler_bad,<u>Hanako said: Ted didn't insist that Eva's uncle should stay for dinner.</u>,124,"What Eva's uncle should do, according to Ted.",34101,backgroundedness,7,insist,,
46,condition1,0.47,NA,1,mos,Hanako said: John didn't whisper that Mary met with the lawyer.,1,NA,18812,acceptability,8,whisper,,
46,condition1,NA,verb,2,filler_good,<u>Hanako said: Julie didn't guess that Charlie received a message.</u>,108,"What Charlie received, according to Julie.",11896,backgroundedness,9,guess,,
46,condition1,0.8,NA,2,mos,Hanako said: Laura didn't mutter that Brandon broke his laptop.,4,NA,14855,acceptability,10,mutter,,
46,condition1,0.7,NA,2,filler_bad,Hanako said: Ben didn't expect that Judith and Eleanor would solve the puzzle.,116,NA,12997,acceptability,11,expect,,
46,condition1,NA,embed,2,say,<u>Hanako said: Emily didn't say that Paul drafted the letter.</u>,302,"What Paul drafted, according to Emily.",16992,backgroundedness,12,say,,
46,condition1,0.12,NA,3,filler_bad,Hanako said: Amelia didn't suggest that Frank and Lisa were in the office.,117,NA,11298,acceptability,13,suggest,,
46,condition1,1,NA,3,say,Hanako said: Noah didn't say that Sharon wanted a dog.,312,NA,8488,acceptability,14,say,,
46,condition1,NA,embed,3,filler_good,<u>Hanako said: Matthew didn't hope that Dana brought a gift.</u>,107,Who hoped that Dana brought a gift.,14537,backgroundedness,15,hope,,
46,condition1,NA,verb,3,mos,<u>Hanako said: Yash didn't whine that Ming forgot her phone. </u>,9,The way Yash communicated that Ming forgot her phone.,18625,backgroundedness,16,whine,,
46,condition1,NA,verb,4,filler_bad,<u>Hanako said: Tim didn't suspect that Liz and Jason drank the beer. </u>,114,Who suspected that Jason drank the beer.,16990,backgroundedness,17,suspect,,
46,condition1,1,NA,4,filler_good,Hanako said: Juliet didn't confirm that Sebastian would come to the party.,112,NA,9770,acceptability,18,confirm,,
46,condition1,0.38,NA,4,mos,Hanako said: Emma didn't stammer that Kevin lost the keys.,2,NA,8830,acceptability,19,stammer,,
46,condition1,NA,verb,4,say,<u>Hanako said: Tom didn't say that Sarah admired her friend. </u>,311,The way Tom communicated that Sarah admired her friend.,11453,backgroundedness,20,say,,
46,condition1,0.46,NA,5,filler_good,Hanako said: Selena didn't speculate that Justin would buy the house.,105,NA,12223,acceptability,21,spectulate,,
46,condition1,0.27,NA,5,say,Hanako said: Tim didn't say that Jason drank the beer. ,304,NA,8400,acceptability,22,say,,
46,condition1,NA,verb,5,mos,<u>Hanako said: Chandler didn't moan that Tia brought her parents.</u>,12,The way Chandler communicated that Tia brought her parents.,12294,backgroundedness,23,moan,,
46,condition1,NA,verb,5,filler_bad,<u>Hanako said: Donald didn't reveal that the parents of Krishna were moving to Texas. </u>,122,"Where Krishna's parents were moving to, according to Donald.",16562,backgroundedness,24,reveal,,
46,condition1,0,NA,6,filler_bad,Hanako said: Helen didn't think that Rob and Marc cut the bread. ,113,NA,16777,acceptability,25,think,,
46,condition1,NA,verb,6,say,<u>Hanako said: Jessie didn't say that Michelle borrowed the computer.</u>,310,The way Jessie communicated that Michelle borrowed the computer.,13208,backgroundedness,26,say,,
46,condition1,0.56,NA,6,filler_good,Hanako said: Roger didn't expect that Andy would take the jacket.,104,NA,11050,acceptability,27,expect,,
46,condition1,NA,verb,6,mos,<u>Hanako said: Jake didn't yell that Yumi found the wallet.</u>,7,The way Jake communicated that Yumi found the wallet.,14752,backgroundedness,28,yell,,
46,condition1,NA,verb,7,mos,<u>Hanako said: Igor didn't shriek that Penny won the lottery.</u>,11,The way Igor communicated that Penny won the lottery.,9859,backgroundedness,29,shriek,,
46,condition1,0.28,NA,7,say,Hanako said: Charlie didn't say that Maddie would call her roommate.,305,NA,13776,acceptability,30,say,,
46,condition1,0.81,NA,7,filler_good,Hanako said: Ryan didn't expect that Leon heard the news.,111,NA,8665,acceptability,31,expect,,
46,condition1,NA,embed,7,filler_bad,<u>Hanakko said: Larry didn't believe that Karl and Nick cooked dinner.</u>,115,"Who else cooked dinner other than Karl, according to Larry.",16260,backgroundedness,32,believe,,
46,condition1,0.47,NA,8,say,Hanako said: Sally didn't say that Tony would visit George.,303,NA,10329,acceptability,33,say,,
46,condition1,1,NA,8,filler_good,Hanako said: Jess didn't reveal that Todd went out with Betty.,109,NA,10444,acceptability,34,reveal,,
46,condition1,NA,embed,8,filler_bad,<u>Hanako said: Rui didn't imply that Carol's brother signed the contract.</u>,119,"Whose brother signed the contract, according to Rui.",20199,backgroundedness,35,imply,,
46,condition1,NA,verb,8,mos,<u>Hanako said: Bill didn't shout that Dan knew the professor.</u>,5,The way Bill communicated that Dan knew the professor.,14073,backgroundedness,36,shout,,
