workerid,proliferate.condition,acceptability_rating,block_id,condition,context,item_id,rt,trial_num,verb,wrong_attempts,error
1265,condition1,1,practice,practice_acceptability_good_1,Hanako said: Fiona didn't buy pineapple.,201,,0,NA,0,
1265,condition1,0,practice,practice_accpetability_bad_2,Hanako said: Prisha doesn't speak Korean.,204,,0,NA,0,
1265,condition1,0.14,0,filler_bad,Hanako said: Yash didn't guess that Rob and Marc cut the bread. ,114,9017,1,guess,,
1265,condition1,0.86,0,filler_good,Hanako said: Chandler didn't insist that Charlie received a message.,110,7728,2,insist,,
1265,condition1,0.09,0,filler_bad,Hanako said: Igor didn't expect that Liz and Jason drank the beer. ,115,11293,3,expect,,
1265,condition1,0.96,0,say,Hanako said: John didn't say that Yumi found the wallet.,7,5338,4,say,,
1265,condition1,0.91,0,filler_good,Hanako said: Nancy didn't reveal that Jacy rented the truck.,107,5661,5,reveal,,
1265,condition1,0.7,0,say_adv,Hanako said: Hannah didn't say ruefully that Mary met with the lawyer.,1,7624,6,say ruefully,,
1265,condition1,0.08,1,filler_bad,Hanako said: Fatima didn't reveal that Judith and Laura would order pizza.,118,13031,7,reveal,,
1265,condition1,0.06,1,filler_bad,Hanako said: Laura didn't expect that the agent of the guitarist would show up.,120,109913,8,expect,,
1265,condition1,0.33,1,say,Hanako said: Tony didn't say that Penny won the lottery.,11,5817,9,say,,
1265,condition1,0.9,1,filler_good,Hanako said: Grace didn't suspect that Zack broke the plates.,109,7549,10,suspect,,
1265,condition1,0.27,1,say_adv,Hanako said: Ollie didn't say gently that Ming forgot her phone. ,9,6649,11,say gently,,
1265,condition1,0.86,1,filler_good,Hanako said: Rui didn't expect that George emailed the students.,101,4326,12,expect,,
1265,condition1,0.04,2,filler_bad,Hanako said: Sally didn't hope that Frank and Lisa were in the office.,116,5031,13,hope,,
1265,condition1,0.24,2,say_adv,Hanako said: Donald didn't say bluntly that Hasan talked to the detectives.,8,6676,14,say bluntly,,
1265,condition1,0.12,2,say,Hanako said: Jamal didn't say that Tia brought her parents.,12,56225,15,say,,
1265,condition1,0.95,2,filler_good,Hanako said: Julian didn't suggest that Karen wrote a book.,104,6982,16,suggest,,
1265,condition1,0.97,2,filler_good,Hanako said: Jess didn't think that Jennifer got a cat.,105,4449,17,think,,
1265,condition1,0.02,2,filler_bad,Hanako said: Howard didn't believe that the book about astronomy was on the shelf.,124,5450,18,believe,,
1265,condition1,0.21,3,say_adv,Hanako said: Amy didn't say sternly that Brandon broke his laptop.,4,6498,19,say sternly,,
1265,condition1,0.35,3,say,Hanako said: Ted didn't say that Kevin lost the keys.,2,6503,20,say,,
1265,condition1,0.93,3,filler_good,Hanako said: Matthew didn't imply that Todd went out with Betty.,111,4926,21,imply,,
1265,condition1,0.02,3,filler_bad,Hanako said: Helen didn't insist that Krisha's parents were moving to Texas.,123,8203,22,insist,,
1265,condition1,0,3,filler_bad,Hanako said: Danny didn't imply that Eva's uncle should stay for dinner.,121,6375,23,imply,,
1265,condition1,0.92,3,filler_good,Hanako said: Frankie didn't believe that Dana brought a gift.,108,5112,24,believe,,
1265,condition1,0.93,4,say_adv,Hanako said: Emily didn't say calmly that Charlie saw the robber.,6,7729,25,say calmly,,
1265,condition1,0.55,4,filler_good,Hanako said: Ronald didn't hope that Doug would invite the mayor.,102,78031,26,hope,,
1265,condition1,0.01,4,filler_bad,Hanako said: Jessie didn't think that Kevin and Paul drafted the letter.,113,3734,27,think,,
1265,condition1,0.06,4,filler_bad,Hanako said: Jake didn't suggest that Carol's brother signed the contract.,119,4861,28,suggest,,
1265,condition1,0.92,4,filler_good,Hanako said: Kate didn't guess that Tony would visit George.,112,4334,29,guess,,
1265,condition1,0.76,4,say,Hanako said: Ashley didn't say that Alex bought a birthday cake.,3,2988,30,say,,
1265,condition1,0.01,5,filler_bad,Hanako said: Ben didn't suspect that Karl and Nick cooked dinner.,117,3711,31,suspect,,
1265,condition1,0.98,5,filler_good,Hanako said: Bill didn't expect that Julian ate the cupcake.,103,3086,32,expect,,
1265,condition1,0.81,5,say_adv,Hanako said: Emma didn't say dryly that Dan knew the professor.,5,9607,33,say dryly,,
1265,condition1,0.03,5,filler_bad,Hanako said: Tim didn't speculate that the assistant to the director would give the presentation.,122,5541,34,speculate,,
1265,condition1,0.92,5,filler_good,Hanako said: Larry didn't speculate that Maddie would call her roommate.,106,3937,35,speculate,,
1265,condition1,0.87,5,say,Hanako said: Charlie didn't say that Omar had dinner with his manager.,10,4391,36,say,,
1281,condition1,0.96,practice,practice_acceptability_good_1,Hanako said: Fiona didn't buy pineapple.,201,,0,NA,0,
1281,condition1,0.07,practice,practice_accpetability_bad_2,Hanako said: Prisha doesn't speak Korean.,204,,0,NA,0,
1281,condition1,0.77,0,say,Hanako said: Chandler didn't say that Yumi found the wallet.,7,32825,1,say,,
1281,condition1,0.36,0,filler_good,Hanako said: Ben didn't expect that George emailed the students.,101,12236,2,expect,,
1281,condition1,0,0,filler_bad,Hanako said: Howard didn't believe that Kevin and Paul drafted the letter.,113,13924,3,believe,,
1281,condition1,0.02,0,filler_bad,Hanako said: Matthew didn't expect that Judith and Laura would order pizza.,118,12640,4,expect,,
1281,condition1,0.24,0,say_adv,Hanako said: Igor didn't say dryly that Dan knew the professor.,5,8467,5,say dryly,,
1281,condition1,0.98,0,filler_good,Hanako said: Sally didn't think that Julian ate the cupcake.,103,5883,6,think,,
1281,condition1,0.76,1,filler_good,Hanako said: Laura didn't speculate that Jacy rented the truck.,107,16210,7,speculate,,
1281,condition1,1,1,filler_good,Hanako said: Nancy didn't suggest that Zack broke the plates.,109,5349,8,suggest,,
1281,condition1,0.98,1,say,Hanako said: Emma didn't say that Mary met with the lawyer.,1,18767,9,say,,
1281,condition1,0.03,1,filler_bad,Hanako said: Rui didn't suggest that Liz and Jason drank the beer. ,115,9383,10,suggest,,
1281,condition1,0.4,1,say_adv,Hanako said: Helen didn't say loudly that Charlie saw the robber.,6,12041,11,say loudly,,
1281,condition1,0,1,filler_bad,Hanako said: Jess didn't imply that the assistant to the director would give the presentation.,122,8044,12,imply,,
1281,condition1,0.64,2,say,Hanako said: John didn't say that Kevin lost the keys.,2,13510,13,say,,
1281,condition1,0.4,2,filler_bad,Hanako said: Jamal didn't insist that Eva's uncle should stay for dinner.,121,9636,14,insist,,
1281,condition1,0.2,2,filler_bad,Hanako said: Ollie didn't speculate that the agent of the guitarist would show up.,120,8689,15,speculate,,
1281,condition1,0.98,2,say_adv,Hanako said: Amy didn't say softly that Hasan talked to the detectives.,8,9659,16,say softly,,
1281,condition1,0.96,2,filler_good,Hanako said: Julian didn't guess that Maddie would call her roommate.,106,5973,17,guess,,
1281,condition1,0.98,2,filler_good,Hanako said: Emily didn't suspect that Charlie received a message.,110,5731,18,suspect,,
1281,condition1,0.99,3,say,Hanako said: Jake didn't say that Ming forgot her phone. ,9,6634,19,say,,
1281,condition1,0.97,3,filler_bad,Hanako said: Grace didn't guess that Krisha's parents were moving to Texas.,123,8732,20,guess,,
1281,condition1,0.59,3,filler_good,Hanako said: Tony didn't expect that Dana brought a gift.,108,12706,21,expect,,
1281,condition1,0.09,3,filler_bad,Hanako said: Kate didn't think that Frank and Lisa were in the office.,116,184975,22,think,,
1281,condition1,0.66,3,say_adv,Hanako said: Hannah didn't say bluntly that Brandon broke his laptop.,4,25624,23,say bluntly,,
1281,condition1,0.91,3,filler_good,Hanako said: Bill didn't reveal that Jennifer got a cat.,105,63483,24,reveal,,
1281,condition1,0.96,4,say,Hanako said: Ashley didn't say that Alex bought a birthday cake.,3,64798,25,say,,
1281,condition1,0.28,4,say_adv,Hanako said: Fatima didn't say gently that Omar had dinner with his manager.,10,14917,26,say gently,,
1281,condition1,0.02,4,filler_bad,Hanako said: Ted didn't suspect that Karl and Nick cooked dinner.,117,27178,27,suspect,,
1281,condition1,0.77,4,filler_good,Hanako said: Charlie didn't hope that Tony would visit George.,112,81734,28,hope,,
1281,condition1,0.01,4,filler_bad,Hanako said: Danny didn't hope that the book about astronomy was on the shelf.,124,8321,29,hope,,
1281,condition1,0.85,4,filler_good,Hanako said: Donald didn't imply that Karen wrote a book.,104,10992,30,imply,,
1281,condition1,0.92,5,filler_good,Hanako said: Frankie didn't insist that Doug would invite the mayor.,102,3068,31,insist,,
1281,condition1,0.64,5,say,Hanako said: Jessie didn't say that Tia brought her parents.,12,8192,32,say,,
1281,condition1,0.61,5,filler_good,Hanako said: Ronald didn't believe that Todd went out with Betty.,111,16264,33,believe,,
1281,condition1,0.33,5,filler_bad,Hanako said: Yash didn't reveal that Carol's brother signed the contract.,119,28925,34,reveal,,
1281,condition1,0.6,5,say_adv,Hanako said: Larry didn't say wearily that Penny won the lottery.,11,6402,35,say wearily,,
1281,condition1,0.08,5,filler_bad,Hanako said: Tim didn't expect that Rob and Marc cut the bread. ,114,4965,36,expect,,
1126,condition1,1,practice,practice_acceptability_good_1,Hanako said: Fiona didn't buy pineapple.,201,,0,NA,0,
1126,condition1,0,practice,practice_accpetability_bad_2,Hanako said: Prisha doesn't speak Korean.,204,,0,NA,0,
1126,condition1,0.63,0,filler_good,Hanako said: Kate didn't expect that Dana brought a gift.,108,10964,1,expect,,
1126,condition1,0.79,0,say_adv,Hanako said: Jess didn't say wistfully that Yumi found the wallet.,7,8464,2,say wistfully,,
1126,condition1,0.65,0,say,Hanako said: Hannah didn't say that Mary met with the lawyer.,1,7957,3,say,,
1126,condition1,0.56,0,filler_bad,Hanako said: Jake didn't think that the agent of the guitarist would show up.,120,11184,4,think,,
1126,condition1,0.69,0,filler_good,Hanako said: Helen didn't guess that Tony would visit George.,112,8910,5,guess,,
1126,condition1,0.46,0,filler_bad,Hanako said: Rui didn't imply that Frank and Lisa were in the office.,116,16975,6,imply,,
1126,condition1,0.56,1,say_adv,Hanako said: Donald didn't say calmly that Ming forgot her phone. ,9,11800,7,say calmly,,
1126,condition1,0.68,1,filler_good,Hanako said: John didn't expect that Jennifer got a cat.,105,9488,8,expect,,
1126,condition1,0.39,1,filler_bad,Hanako said: Bill didn't hope that Kevin and Paul drafted the letter.,113,9361,9,hope,,
1126,condition1,0.73,1,say,Hanako said: Ashley didn't say that Kevin lost the keys.,2,5920,10,say,,
1126,condition1,0.34,1,filler_bad,Hanako said: Howard didn't expect that Liz and Jason drank the beer. ,115,8608,11,expect,,
1126,condition1,0.66,1,filler_good,Hanako said: Jessie didn't think that Jacy rented the truck.,107,6450,12,think,,
1126,condition1,0.25,2,filler_bad,Hanako said: Grace didn't suspect that Carol's brother signed the contract.,119,5320,13,suspect,,
1126,condition1,0.65,2,filler_good,Hanako said: Ronald didn't speculate that Todd went out with Betty.,111,7041,14,speculate,,
1126,condition1,0.69,2,filler_good,Hanako said: Matthew didn't suggest that Julian ate the cupcake.,103,5116,15,suggest,,
1126,condition1,0.36,2,filler_bad,Hanako said: Danny didn't insist that Krisha's parents were moving to Texas.,123,6062,16,insist,,
1126,condition1,0.6,2,say_adv,Hanako said: Jamal didn't say dryly that Dan knew the professor.,5,15505,17,say dryly,,
1126,condition1,0.58,2,say,Hanako said: Ben didn't say that Penny won the lottery.,11,5791,18,say,,
1126,condition1,0.76,3,filler_good,Hanako said: Chandler didn't imply that George emailed the students.,101,4753,19,imply,,
1126,condition1,0.18,3,filler_bad,Hanako said: Sally didn't speculate that the assistant to the director would give the presentation.,122,6235,20,speculate,,
1126,condition1,0.38,3,say_adv,Hanako said: Ted didn't say cheerfully that Hasan talked to the detectives.,8,7829,21,say cheerfully,,
1126,condition1,0.74,3,say,Hanako said: Tim didn't say that Alex bought a birthday cake.,3,8166,22,say,,
1126,condition1,0.8,3,filler_good,Hanako said: Emma didn't insist that Maddie would call her roommate.,106,7383,23,insist,,
1126,condition1,0.19,3,filler_bad,Hanako said: Nancy didn't believe that Karl and Nick cooked dinner.,117,8711,24,believe,,
1126,condition1,0.66,4,say_adv,Hanako said: Laura didn't say wearily that Brandon broke his laptop.,4,5708,25,say wearily,,
1126,condition1,0.61,4,say,Hanako said: Tony didn't say that Charlie saw the robber.,6,9869,26,say,,
1126,condition1,0.58,4,filler_good,Hanako said: Amy didn't hope that Zack broke the plates.,109,6458,27,hope,,
1126,condition1,0.24,4,filler_bad,Hanako said: Frankie didn't guess that Eva's uncle should stay for dinner.,121,4248,28,guess,,
1126,condition1,0.72,4,filler_good,Hanako said: Julian didn't suspect that Doug would invite the mayor.,102,5213,29,suspect,,
1126,condition1,0.25,4,filler_bad,Hanako said: Ollie didn't suggest that the book about astronomy was on the shelf.,124,7730,30,suggest,,
1126,condition1,0.74,5,say,Hanako said: Larry didn't say that Omar had dinner with his manager.,10,5983,31,say,,
1126,condition1,0.66,5,filler_good,Hanako said: Fatima didn't believe that Karen wrote a book.,104,13136,32,believe,,
1126,condition1,0.21,5,filler_bad,Hanako said: Igor didn't expect that Rob and Marc cut the bread. ,114,8382,33,expect,,
1126,condition1,0.67,5,filler_good,Hanako said: Yash didn't reveal that Charlie received a message.,110,12683,34,reveal,,
1126,condition1,0.15,5,filler_bad,Hanako said: Charlie didn't reveal that Judith and Laura would order pizza.,118,5488,35,reveal,,
1126,condition1,0.79,5,say_adv,Hanako said: Emily didn't say loudly that Tia brought her parents.,12,12824,36,say loudly,,
1251,condition1,0.79,practice,practice_acceptability_good_1,Hanako said: Fiona didn't buy pineapple.,201,,0,NA,2,
1251,condition1,0.18,practice,practice_accpetability_bad_2,Hanako said: Prisha doesn't speak Korean.,204,,0,NA,0,
1251,condition1,0.15,0,say_adv,Hanako said: Ronald didn't say dryly that Omar had dinner with his manager.,10,4095,1,say dryly,,
1251,condition1,0.11,0,filler_good,Hanako said: Tim didn't expect that Zack broke the plates.,109,3527,2,expect,,
1251,condition1,0.9,0,filler_good,Hanako said: Nancy didn't speculate that Tony would visit George.,112,2730,3,speculate,,
1251,condition1,0.88,0,filler_bad,Hanako said: Jake didn't expect that the agent of the guitarist would show up.,120,3166,4,expect,,
1251,condition1,0.86,0,say,Hanako said: Yash didn't say that Hasan talked to the detectives.,8,3631,5,say,,
1251,condition1,0.15,0,filler_bad,Hanako said: Emma didn't think that Eva's uncle should stay for dinner.,121,4926,6,think,,
1251,condition1,0.91,1,filler_good,Hanako said: Danny didn't reveal that Karen wrote a book.,104,1958,7,reveal,,
1251,condition1,0.1,1,filler_bad,Hanako said: Chandler didn't expect that Krisha's parents were moving to Texas.,123,4547,8,expect,,
1251,condition1,0.13,1,filler_bad,Hanako said: Helen didn't suspect that Judith and Laura would order pizza.,118,3893,9,suspect,,
1251,condition1,0.87,1,filler_good,Hanako said: John didn't suspect that George emailed the students.,101,1896,10,suspect,,
1251,condition1,0.94,1,say_adv,Hanako said: Hannah didn't say calmly that Penny won the lottery.,11,2305,11,say calmly,,
1251,condition1,0.93,1,say,Hanako said: Charlie didn't say that Mary met with the lawyer.,1,3078,12,say,,
1251,condition1,0.82,2,say,Hanako said: Rui didn't say that Alex bought a birthday cake.,3,1677,13,say,,
1251,condition1,0.86,2,filler_bad,Hanako said: Tony didn't guess that the assistant to the director would give the presentation.,122,1831,14,guess,,
1251,condition1,0.84,2,filler_good,Hanako said: Sally didn't guess that Jennifer got a cat.,105,3655,15,guess,,
1251,condition1,0.84,2,say_adv,Hanako said: Howard didn't say wearily that Kevin lost the keys.,2,3599,16,say wearily,,
1251,condition1,0.81,2,filler_bad,Hanako said: Donald didn't insist that Karl and Nick cooked dinner.,117,3188,17,insist,,
1251,condition1,0.86,2,filler_good,Hanako said: Ollie didn't believe that Maddie would call her roommate.,106,2481,18,believe,,
1251,condition1,0.09,3,filler_bad,Hanako said: Julian didn't reveal that Kevin and Paul drafted the letter.,113,2129,19,reveal,,
1251,condition1,0.36,3,filler_good,Hanako said: Igor didn't suggest that Charlie received a message.,110,674,20,suggest,,
1251,condition1,0.71,3,say,Hanako said: Kate didn't say that Ming forgot her phone. ,9,1020,21,say,,
1251,condition1,0.3,3,say_adv,Hanako said: Fatima didn't say ruefully that Brandon broke his laptop.,4,764,22,say ruefully,,
1251,condition1,0.32,3,filler_bad,Hanako said: Matthew didn't suggest that the book about astronomy was on the shelf.,124,883,23,suggest,,
1251,condition1,0.55,3,filler_good,Hanako said: Amy didn't imply that Dana brought a gift.,108,747,24,imply,,
1251,condition1,0.32,4,filler_good,Hanako said: Larry didn't hope that Doug would invite the mayor.,102,851,25,hope,,
1251,condition1,0.74,4,filler_bad,Hanako said: Jess didn't speculate that Carol's brother signed the contract.,119,824,26,speculate,,
1251,condition1,0.7,4,filler_good,Hanako said: Ben didn't insist that Todd went out with Betty.,111,1068,27,insist,,
1251,condition1,0.17,4,say_adv,Hanako said: Ted didn't say loudly that Tia brought her parents.,12,3764,28,say loudly,,
1251,condition1,0.86,4,filler_bad,Hanako said: Bill didn't imply that Frank and Lisa were in the office.,116,1654,29,imply,,
1251,condition1,0.83,4,say,Hanako said: Grace didn't say that Charlie saw the robber.,6,1600,30,say,,
1251,condition1,0.08,5,filler_bad,Hanako said: Ashley didn't hope that Liz and Jason drank the beer. ,115,3340,31,hope,,
1251,condition1,0.12,5,filler_bad,Hanako said: Jamal didn't believe that Rob and Marc cut the bread. ,114,4170,32,believe,,
1251,condition1,0.94,5,filler_good,Hanako said: Emily didn't expect that Jacy rented the truck.,107,2602,33,expect,,
1251,condition1,0.22,5,filler_good,Hanako said: Frankie didn't think that Julian ate the cupcake.,103,1366,34,think,,
1251,condition1,0.84,5,say_adv,Hanako said: Laura didn't say sternly that Yumi found the wallet.,7,909,35,say sternly,,
1251,condition1,0.72,5,say,Hanako said: Jessie didn't say that Dan knew the professor.,5,721,36,say,,
1269,condition1,1,practice,practice_acceptability_good_1,Hanako said: Fiona didn't buy pineapple.,201,,0,NA,0,
1269,condition1,0,practice,practice_accpetability_bad_2,Hanako said: Prisha doesn't speak Korean.,204,,0,NA,0,
1269,condition1,0,0,filler_bad,Hanako said: Emma didn't speculate that Kevin and Paul drafted the letter.,113,4651,1,speculate,,
1269,condition1,1,0,filler_good,Hanako said: Jessie didn't suggest that Charlie received a message.,110,4015,2,suggest,,
1269,condition1,0.17,0,say_adv,Hanako said: Ronald didn't say wearily that Kevin lost the keys.,2,5067,3,say wearily,,
1269,condition1,0.67,0,filler_good,Hanako said: Grace didn't reveal that Doug would invite the mayor.,102,5116,4,reveal,,
1269,condition1,0,0,filler_bad,Hanako said: Nancy didn't hope that Karl and Nick cooked dinner.,117,3698,5,hope,,
1269,condition1,1,0,say,Hanako said: Ollie didn't say that Mary met with the lawyer.,1,3717,6,say,,
1269,condition1,0.01,1,filler_bad,Hanako said: Ted didn't expect that Rob and Marc cut the bread. ,114,6201,7,expect,,
1269,condition1,0.67,1,filler_good,Hanako said: Fatima didn't guess that Zack broke the plates.,109,3466,8,guess,,
1269,condition1,0,1,filler_bad,Hanako said: Emily didn't imply that Eva's uncle should stay for dinner.,121,24849,9,imply,,
1269,condition1,0.62,1,say,Hanako said: Ashley didn't say that Charlie saw the robber.,6,3384,10,say,,
1269,condition1,0.48,1,filler_good,Hanako said: Julian didn't insist that Maddie would call her roommate.,106,5549,11,insist,,
1269,condition1,0.24,1,say_adv,Hanako said: Chandler didn't say calmly that Penny won the lottery.,11,5032,12,say calmly,,
1269,condition1,0.66,2,filler_good,Hanako said: Matthew didn't believe that Julian ate the cupcake.,103,4701,13,believe,,
1269,condition1,0.64,2,filler_good,Hanako said: Jake didn't hope that Jacy rented the truck.,107,5818,14,hope,,
1269,condition1,0.12,2,filler_bad,Hanako said: Igor didn't expect that the book about astronomy was on the shelf.,124,5782,15,expect,,
1269,condition1,1,2,say,Hanako said: Laura didn't say that Tia brought her parents.,12,3316,16,say,,
1269,condition1,0,2,filler_bad,Hanako said: Ben didn't suggest that Krisha's parents were moving to Texas.,123,3451,17,suggest,,
1269,condition1,0,2,say_adv,Hanako said: Sally didn't say dryly that Brandon broke his laptop.,4,4248,18,say dryly,,
1269,condition1,0,3,filler_bad,Hanako said: Kate didn't suspect that Frank and Lisa were in the office.,116,3434,19,suspect,,
1269,condition1,0.66,3,filler_good,Hanako said: Helen didn't expect that Jennifer got a cat.,105,2183,20,expect,,
1269,condition1,0.89,3,filler_good,Hanako said: Hannah didn't speculate that George emailed the students.,101,2617,21,speculate,,
1269,condition1,0.85,3,say,Hanako said: Tim didn't say that Omar had dinner with his manager.,10,7134,22,say,,
1269,condition1,0.57,3,say_adv,Hanako said: Jess didn't say gently that Alex bought a birthday cake.,3,5115,23,say gently,,
1269,condition1,0.64,3,filler_bad,Hanako said: Tony didn't reveal that the assistant to the director would give the presentation.,122,5667,24,reveal,,
1269,condition1,0.61,4,filler_good,Hanako said: John didn't expect that Dana brought a gift.,108,9317,25,expect,,
1269,condition1,0.83,4,say,Hanako said: Bill didn't say that Ming forgot her phone. ,9,5417,26,say,,
1269,condition1,0.83,4,filler_good,Hanako said: Howard didn't suspect that Todd went out with Betty.,111,4250,27,suspect,,
1269,condition1,0.28,4,filler_bad,Hanako said: Rui didn't think that Carol's brother signed the contract.,119,3314,28,think,,
1269,condition1,0.41,4,say_adv,Hanako said: Charlie didn't say sternly that Hasan talked to the detectives.,8,3017,29,say sternly,,
1269,condition1,0.03,4,filler_bad,Hanako said: Larry didn't believe that Liz and Jason drank the beer. ,115,4483,30,believe,,
1269,condition1,0.58,5,filler_bad,Hanako said: Danny didn't insist that the agent of the guitarist would show up.,120,5166,31,insist,,
1269,condition1,0.16,5,filler_bad,Hanako said: Frankie didn't guess that Judith and Laura would order pizza.,118,3683,32,guess,,
1269,condition1,0.84,5,say,Hanako said: Jamal didn't say that Dan knew the professor.,5,2733,33,say,,
1269,condition1,0.93,5,filler_good,Hanako said: Yash didn't imply that Tony would visit George.,112,3799,34,imply,,
1269,condition1,1,5,filler_good,Hanako said: Amy didn't think that Karen wrote a book.,104,2568,35,think,,
1269,condition1,0.57,5,say_adv,Hanako said: Donald didn't say bluntly that Yumi found the wallet.,7,11784,36,say bluntly,,
1115,condition1,0.67,practice,practice_acceptability_good_1,Hanako said: Fiona didn't buy pineapple.,201,,0,NA,0,
1115,condition1,0.01,practice,practice_accpetability_bad_2,Hanako said: Prisha doesn't speak Korean.,204,,0,NA,0,
1115,condition1,0.71,0,say,Hanako said: Ashley didn't say that Mary met with the lawyer.,1,3683,1,say,,
1115,condition1,0.11,0,filler_bad,Hanako said: Julian didn't expect that Frank and Lisa were in the office.,116,5512,2,expect,,
1115,condition1,0.76,0,filler_good,Hanako said: Tony didn't imply that Jennifer got a cat.,105,2343,3,imply,,
1115,condition1,0,0,say_adv,Hanako said: Yash didn't say loudly that Kevin lost the keys.,2,2577,4,say loudly,,
1115,condition1,0.16,0,filler_bad,Hanako said: Fatima didn't reveal that the agent of the guitarist would show up.,120,5583,5,reveal,,
1115,condition1,0.67,0,filler_good,Hanako said: Ben didn't hope that Todd went out with Betty.,111,2537,6,hope,,
1115,condition1,0.72,1,say,Hanako said: Ollie didn't say that Ming forgot her phone. ,9,2884,7,say,,
1115,condition1,0.71,1,filler_good,Hanako said: Kate didn't suggest that Tony would visit George.,112,1519,8,suggest,,
1115,condition1,0.12,1,filler_bad,Hanako said: Jessie didn't insist that Kevin and Paul drafted the letter.,113,5584,9,insist,,
1115,condition1,0.7,1,say_adv,Hanako said: Amy didn't say calmly that Alex bought a birthday cake.,3,3531,10,say calmly,,
1115,condition1,0.69,1,filler_good,Hanako said: Emma didn't guess that Zack broke the plates.,109,4113,11,guess,,
1115,condition1,0.12,1,filler_bad,Hanako said: Jake didn't think that Karl and Nick cooked dinner.,117,3813,12,think,,
1115,condition1,0.25,2,filler_bad,Hanako said: Jamal didn't imply that Rob and Marc cut the bread. ,114,10926,13,imply,,
1115,condition1,0.67,2,say_adv,Hanako said: Igor didn't say ruefully that Hasan talked to the detectives.,8,3698,14,say ruefully,,
1115,condition1,0.77,2,filler_good,Hanako said: Danny didn't believe that Karen wrote a book.,104,2174,15,believe,,
1115,condition1,0.19,2,filler_bad,Hanako said: Nancy didn't guess that Liz and Jason drank the beer. ,115,3207,16,guess,,
1115,condition1,0.83,2,say,Hanako said: Chandler didn't say that Charlie saw the robber.,6,2514,17,say,,
1115,condition1,0.82,2,filler_good,Hanako said: Jess didn't speculate that George emailed the students.,101,1810,18,speculate,,
1115,condition1,0.76,3,say,Hanako said: Frankie didn't say that Tia brought her parents.,12,1947,19,say,,
1115,condition1,0.82,3,say_adv,Hanako said: Hannah didn't say sternly that Penny won the lottery.,11,2149,20,say sternly,,
1115,condition1,0.22,3,filler_bad,Hanako said: Sally didn't expect that Carol's brother signed the contract.,119,3265,21,expect,,
1115,condition1,0.74,3,filler_good,Hanako said: Larry didn't expect that Charlie received a message.,110,1777,22,expect,,
1115,condition1,0.75,3,filler_bad,Hanako said: Ted didn't suspect that the book about astronomy was on the shelf.,124,4598,23,suspect,,
1115,condition1,0.75,3,filler_good,Hanako said: Helen didn't reveal that Jacy rented the truck.,107,2497,24,reveal,,
1115,condition1,0.77,4,filler_good,Hanako said: Charlie didn't think that Julian ate the cupcake.,103,1228,25,think,,
1115,condition1,0.79,4,filler_good,Hanako said: Howard didn't insist that Dana brought a gift.,108,1058,26,insist,,
1115,condition1,0.76,4,say_adv,Hanako said: Tim didn't say cheerfully that Brandon broke his laptop.,4,1083,27,say cheerfully,,
1115,condition1,0.76,4,say,Hanako said: Matthew didn't say that Yumi found the wallet.,7,1931,28,say,,
1115,condition1,0.19,4,filler_bad,Hanako said: Donald didn't speculate that Eva's uncle should stay for dinner.,121,2901,29,speculate,,
1115,condition1,0.81,4,filler_bad,Hanako said: Grace didn't hope that the assistant to the director would give the presentation.,122,2206,30,hope,,
1115,condition1,0.78,5,filler_bad,Hanako said: Emily didn't suggest that Krisha's parents were moving to Texas.,123,2215,31,suggest,,
1115,condition1,0.73,5,say,Hanako said: Rui didn't say that Omar had dinner with his manager.,10,1640,32,say,,
1115,condition1,0.82,5,filler_good,Hanako said: John didn't suspect that Doug would invite the mayor.,102,1584,33,suspect,,
1115,condition1,0.81,5,say_adv,Hanako said: Laura didn't say dryly that Dan knew the professor.,5,1631,34,say dryly,,
1115,condition1,0.23,5,filler_bad,Hanako said: Bill didn't believe that Judith and Laura would order pizza.,118,2287,35,believe,,
1115,condition1,0.78,5,filler_good,Hanako said: Ronald didn't expect that Maddie would call her roommate.,106,1576,36,expect,,
1140,condition1,1,practice,practice_acceptability_good_1,Hanako said: Fiona didn't buy pineapple.,201,,0,NA,0,
1140,condition1,0,practice,practice_accpetability_bad_2,Hanako said: Prisha doesn't speak Korean.,204,,0,NA,0,
1140,condition1,0.89,0,say,Hanako said: Yash didn't say that Mary met with the lawyer.,1,11701,1,say,,
1140,condition1,0,0,filler_bad,Hanako said: Ronald didn't expect that Kevin and Paul drafted the letter.,113,11240,2,expect,,
1140,condition1,0.51,0,say_adv,Hanako said: Matthew didn't say cheerfully that Charlie saw the robber.,6,11523,3,say cheerfully,,
1140,condition1,0,0,filler_bad,Hanako said: Donald didn't speculate that the assistant to the director would give the presentation.,122,11919,4,speculate,,
1140,condition1,1,0,filler_good,Hanako said: Howard didn't speculate that Julian ate the cupcake.,103,43282,5,speculate,,
1140,condition1,1,0,filler_good,Hanako said: Bill didn't suspect that Dana brought a gift.,108,16361,6,suspect,,
1140,condition1,0,1,filler_bad,Hanako said: Emily didn't suspect that the book about astronomy was on the shelf.,124,8150,7,suspect,,
1140,condition1,0,1,say_adv,Hanako said: Danny didn't say loudly that Kevin lost the keys.,2,7049,8,say loudly,,
1140,condition1,0.27,1,filler_good,Hanako said: Ollie didn't expect that Doug would invite the mayor.,102,10572,9,expect,,
1140,condition1,0.69,1,say,Hanako said: Kate didn't say that Penny won the lottery.,11,7802,10,say,,
1140,condition1,0.01,1,filler_bad,Hanako said: Jess didn't suggest that Frank and Lisa were in the office.,116,9814,11,suggest,,
1140,condition1,0.31,1,filler_good,Hanako said: Tim didn't think that Charlie received a message.,110,22395,12,think,,
1140,condition1,0,2,filler_bad,Hanako said: Laura didn't believe that Krisha's parents were moving to Texas.,123,4999,13,believe,,
1140,condition1,0.25,2,filler_bad,Hanako said: Chandler didn't think that Judith and Laura would order pizza.,118,30238,14,think,,
1140,condition1,0.3,2,say_adv,Hanako said: Amy didn't say ruefully that Hasan talked to the detectives.,8,20712,15,say ruefully,,
1140,condition1,0.75,2,filler_good,Hanako said: Julian didn't suggest that Todd went out with Betty.,111,32076,16,suggest,,
1140,condition1,0.19,2,filler_good,Hanako said: Tony didn't believe that Tony would visit George.,112,11624,17,believe,,
1140,condition1,0.65,2,say,Hanako said: Charlie didn't say that Alex bought a birthday cake.,3,75954,18,say,,
1140,condition1,0,3,filler_bad,Hanako said: Fatima didn't expect that the agent of the guitarist would show up.,120,5359,19,expect,,
1140,condition1,0.58,3,say,Hanako said: Igor didn't say that Yumi found the wallet.,7,43235,20,say,,
1140,condition1,0,3,say_adv,Hanako said: John didn't say quietly that Tia brought her parents.,12,7251,21,say quietly,,
1140,condition1,0.67,3,filler_good,Hanako said: Hannah didn't insist that Jacy rented the truck.,107,7273,22,insist,,
1140,condition1,0,3,filler_bad,Hanako said: Frankie didn't reveal that Karl and Nick cooked dinner.,117,10659,23,reveal,,
1140,condition1,0.53,3,filler_good,Hanako said: Ted didn't expect that Karen wrote a book.,104,4643,24,expect,,
1140,condition1,0.94,4,filler_good,Hanako said: Ashley didn't guess that Zack broke the plates.,109,4819,25,guess,,
1140,condition1,0,4,filler_bad,Hanako said: Rui didn't insist that Rob and Marc cut the bread. ,114,7642,26,insist,,
1140,condition1,0.52,4,say_adv,Hanako said: Emma didn't say sternly that Brandon broke his laptop.,4,8521,27,say sternly,,
1140,condition1,0.11,4,filler_bad,Hanako said: Sally didn't hope that Eva's uncle should stay for dinner.,121,9796,28,hope,,
1140,condition1,0.72,4,filler_good,Hanako said: Helen didn't reveal that Maddie would call her roommate.,106,6204,29,reveal,,
1140,condition1,0.6,4,say,Hanako said: Jessie didn't say that Omar had dinner with his manager.,10,14133,30,say,,
1140,condition1,0.64,5,filler_good,Hanako said: Grace didn't imply that Jennifer got a cat.,105,5250,31,imply,,
1140,condition1,0,5,filler_bad,Hanako said: Jake didn't guess that Liz and Jason drank the beer. ,115,12291,32,guess,,
1140,condition1,0,5,say_adv,Hanako said: Nancy didn't say gently that Ming forgot her phone. ,9,9801,33,say gently,,
1140,condition1,0.64,5,filler_good,Hanako said: Jamal didn't hope that George emailed the students.,101,58324,34,hope,,
1140,condition1,0.57,5,say,Hanako said: Ben didn't say that Dan knew the professor.,5,11283,35,say,,
1140,condition1,0.07,5,filler_bad,Hanako said: Larry didn't imply that Carol's brother signed the contract.,119,5233,36,imply,,
1253,condition1,0.83,practice,practice_acceptability_good_1,Hanako said: Fiona didn't buy pineapple.,201,,0,NA,2,
1253,condition1,0.05,practice,practice_accpetability_bad_2,Hanako said: Prisha doesn't speak Korean.,204,,0,NA,0,
1253,condition1,0.78,0,filler_good,Hanako said: Howard didn't hope that Tony would visit George.,112,8014,1,hope,,
1253,condition1,0.21,0,say_adv,Hanako said: Fatima didn't say bluntly that Charlie saw the robber.,6,38920,2,say bluntly,,
1253,condition1,0,0,filler_bad,Hanako said: Chandler didn't suggest that Frank and Lisa were in the office.,116,7493,3,suggest,,
1253,condition1,0.98,0,say,Hanako said: Bill didn't say that Omar had dinner with his manager.,10,5932,4,say,,
1253,condition1,0.02,0,filler_bad,Hanako said: Ben didn't think that Kevin and Paul drafted the letter.,113,8173,5,think,,
1253,condition1,0.99,0,filler_good,Hanako said: Tony didn't insist that Jennifer got a cat.,105,3348,6,insist,,
1253,condition1,0.01,1,filler_bad,Hanako said: Yash didn't believe that Karl and Nick cooked dinner.,117,3744,7,believe,,
1253,condition1,0.99,1,say,Hanako said: Laura didn't say that Yumi found the wallet.,7,5787,8,say,,
1253,condition1,0.28,1,say_adv,Hanako said: Larry didn't say wearily that Tia brought her parents.,12,8982,9,say wearily,,
1253,condition1,0.99,1,filler_good,Hanako said: Ronald didn't expect that Dana brought a gift.,108,17318,10,expect,,
1253,condition1,0.64,1,filler_good,Hanako said: Ashley didn't think that Maddie would call her roommate.,106,19045,11,think,,
1253,condition1,0,1,filler_bad,Hanako said: Ted didn't reveal that the agent of the guitarist would show up.,120,4411,12,reveal,,
1253,condition1,0.03,2,filler_bad,Hanako said: Julian didn't insist that the book about astronomy was on the shelf.,124,11083,13,insist,,
1253,condition1,0.02,2,filler_bad,Hanako said: Rui didn't expect that Eva's uncle should stay for dinner.,121,5292,14,expect,,
1253,condition1,0.99,2,say,Hanako said: Grace didn't say that Penny won the lottery.,11,3107,15,say,,
1253,condition1,0.99,2,filler_good,Hanako said: Frankie didn't speculate that Julian ate the cupcake.,103,4335,16,speculate,,
1253,condition1,0.98,2,filler_good,Hanako said: Amy didn't guess that Charlie received a message.,110,3174,17,guess,,
1253,condition1,0.75,2,say_adv,Hanako said: Tim didn't say sternly that Brandon broke his laptop.,4,5808,18,say sternly,,
1253,condition1,0.98,3,filler_good,Hanako said: Jess didn't believe that Karen wrote a book.,104,3333,19,believe,,
1253,condition1,0.98,3,say,Hanako said: Danny didn't say that Ming forgot her phone. ,9,3937,20,say,,
1253,condition1,0.59,3,say_adv,Hanako said: Emily didn't say softly that Hasan talked to the detectives.,8,3995,21,say softly,,
1253,condition1,0.02,3,filler_bad,Hanako said: Helen didn't guess that Judith and Laura would order pizza.,118,3585,22,guess,,
1253,condition1,1,3,filler_good,Hanako said: Jessie didn't imply that Jacy rented the truck.,107,5085,23,imply,,
1253,condition1,0.01,3,filler_bad,Hanako said: John didn't speculate that Rob and Marc cut the bread. ,114,4279,24,speculate,,
1253,condition1,0.58,4,say_adv,Hanako said: Emma didn't say quietly that Dan knew the professor.,5,8652,25,say quietly,,
1253,condition1,0.89,4,filler_good,Hanako said: Donald didn't expect that Todd went out with Betty.,111,7747,26,expect,,
1253,condition1,0,4,filler_bad,Hanako said: Jamal didn't imply that Carol's brother signed the contract.,119,7134,27,imply,,
1253,condition1,0.02,4,filler_bad,Hanako said: Kate didn't expect that Krisha's parents were moving to Texas.,123,4722,28,expect,,
1253,condition1,1,4,say,Hanako said: Igor didn't say that Mary met with the lawyer.,1,6139,29,say,,
1253,condition1,1,4,filler_good,Hanako said: Hannah didn't suggest that Zack broke the plates.,109,4562,30,suggest,,
1253,condition1,0.62,5,say_adv,Hanako said: Nancy didn't say gently that Alex bought a birthday cake.,3,7886,31,say gently,,
1253,condition1,0.99,5,say,Hanako said: Jake didn't say that Kevin lost the keys.,2,15621,32,say,,
1253,condition1,1,5,filler_good,Hanako said: Ollie didn't reveal that George emailed the students.,101,16249,33,reveal,,
1253,condition1,1,5,filler_good,Hanako said: Sally didn't suspect that Doug would invite the mayor.,102,2939,34,suspect,,
1253,condition1,0,5,filler_bad,Hanako said: Charlie didn't hope that the assistant to the director would give the presentation.,122,7072,35,hope,,
1253,condition1,0,5,filler_bad,Hanako said: Matthew didn't suspect that Liz and Jason drank the beer. ,115,4527,36,suspect,,
1291,condition1,1,practice,practice_acceptability_good_1,Hanako said: Fiona didn't buy pineapple.,201,,0,NA,0,
1291,condition1,0.24,practice,practice_accpetability_bad_2,Hanako said: Prisha doesn't speak Korean.,204,,0,NA,0,
1291,condition1,0.6,0,filler_bad,Hanako said: Tony didn't insist that Kevin and Paul drafted the letter.,113,18165,1,insist,,
1291,condition1,1,0,say,Hanako said: Ted didn't say that Charlie saw the robber.,6,8085,2,say,,
1291,condition1,0.72,0,filler_good,Hanako said: Donald didn't expect that Dana brought a gift.,108,9662,3,expect,,
1291,condition1,0.44,0,filler_bad,Hanako said: Howard didn't expect that Rob and Marc cut the bread. ,114,9562,4,expect,,
1291,condition1,0.59,0,say_adv,Hanako said: Kate didn't say sternly that Omar had dinner with his manager.,10,10787,5,say sternly,,
1291,condition1,1,0,filler_good,Hanako said: Amy didn't believe that George emailed the students.,101,6096,6,believe,,
1291,condition1,1,1,filler_good,Hanako said: Charlie didn't reveal that Maddie would call her roommate.,106,4939,7,reveal,,
1291,condition1,0.39,1,filler_bad,Hanako said: Nancy didn't suggest that Judith and Laura would order pizza.,118,6287,8,suggest,,
1291,condition1,0.71,1,say_adv,Hanako said: Rui didn't say wistfully that Ming forgot her phone. ,9,6345,9,say wistfully,,
1291,condition1,0.78,1,filler_good,Hanako said: John didn't expect that Zack broke the plates.,109,10180,10,expect,,
1291,condition1,0.41,1,filler_bad,Hanako said: Sally didn't speculate that Frank and Lisa were in the office.,116,5174,11,speculate,,
1291,condition1,0.93,1,say,Hanako said: Jamal didn't say that Tia brought her parents.,12,4163,12,say,,
1291,condition1,0.49,2,filler_bad,Hanako said: Yash didn't believe that the assistant to the director would give the presentation.,122,9224,13,believe,,
1291,condition1,1,2,filler_good,Hanako said: Julian didn't suggest that Charlie received a message.,110,3352,14,suggest,,
1291,condition1,0.83,2,filler_good,Hanako said: Helen didn't guess that Jacy rented the truck.,107,5231,15,guess,,
1291,condition1,0.48,2,filler_bad,Hanako said: Hannah didn't think that Krisha's parents were moving to Texas.,123,7379,16,think,,
1291,condition1,0.7,2,say_adv,Hanako said: Ben didn't say loudly that Brandon broke his laptop.,4,7458,17,say loudly,,
1291,condition1,0.99,2,say,Hanako said: Chandler didn't say that Penny won the lottery.,11,4590,18,say,,
1291,condition1,0.54,3,filler_bad,Hanako said: Bill didn't hope that Carol's brother signed the contract.,119,9449,19,hope,,
1291,condition1,0.49,3,filler_bad,Hanako said: Matthew didn't reveal that Eva's uncle should stay for dinner.,121,8347,20,reveal,,
1291,condition1,1,3,filler_good,Hanako said: Larry didn't think that Todd went out with Betty.,111,3241,21,think,,
1291,condition1,0.98,3,say_adv,Hanako said: Ashley didn't say calmly that Kevin lost the keys.,2,3858,22,say calmly,,
1291,condition1,0.98,3,filler_good,Hanako said: Jake didn't imply that Julian ate the cupcake.,103,7357,23,imply,,
1291,condition1,1,3,say,Hanako said: Igor didn't say that Alex bought a birthday cake.,3,3443,24,say,,
1291,condition1,0.43,4,filler_bad,Hanako said: Ronald didn't imply that Karl and Nick cooked dinner.,117,2396,25,imply,,
1291,condition1,0.99,4,filler_good,Hanako said: Ollie didn't insist that Doug would invite the mayor.,102,4747,26,insist,,
1291,condition1,0.94,4,filler_good,Hanako said: Danny didn't hope that Tony would visit George.,112,2497,27,hope,,
1291,condition1,1,4,say_adv,Hanako said: Emily didn't say ruefully that Dan knew the professor.,5,2553,28,say ruefully,,
1291,condition1,0.49,4,filler_bad,Hanako said: Fatima didn't suspect that the agent of the guitarist would show up.,120,4014,29,suspect,,
1291,condition1,0.98,4,say,Hanako said: Emma didn't say that Mary met with the lawyer.,1,3174,30,say,,
1291,condition1,0.65,5,filler_good,Hanako said: Tim didn't suspect that Karen wrote a book.,104,3285,31,suspect,,
1291,condition1,0.43,5,filler_bad,Hanako said: Grace didn't expect that Liz and Jason drank the beer. ,115,3217,32,expect,,
1291,condition1,1,5,say_adv,Hanako said: Jessie didn't say softly that Hasan talked to the detectives.,8,3870,33,say softly,,
1291,condition1,1,5,filler_good,Hanako said: Frankie didn't speculate that Jennifer got a cat.,105,2993,34,speculate,,
1291,condition1,1,5,say,Hanako said: Jess didn't say that Yumi found the wallet.,7,3014,35,say,,
1291,condition1,0.2,5,filler_bad,Hanako said: Laura didn't guess that the book about astronomy was on the shelf.,124,14017,36,guess,,
1097,condition1,1,practice,practice_acceptability_good_1,Hanako said: Fiona didn't buy pineapple.,201,,0,NA,0,
1097,condition1,0.02,practice,practice_accpetability_bad_2,Hanako said: Prisha doesn't speak Korean.,204,,0,NA,0,
1097,condition1,0.07,0,filler_bad,Hanako said: Ronald didn't insist that Eva's uncle should stay for dinner.,121,12163,1,insist,,
1097,condition1,0.3,0,filler_good,Hanako said: Donald didn't expect that George emailed the students.,101,10545,2,expect,,
1097,condition1,0.45,0,say_adv,Hanako said: Tim didn't say wistfully that Yumi found the wallet.,7,15707,3,say wistfully,,
1097,condition1,0.78,0,say,Hanako said: Ben didn't say that Mary met with the lawyer.,1,14989,4,say,,
1097,condition1,1,0,filler_good,Hanako said: Chandler didn't reveal that Zack broke the plates.,109,7633,5,reveal,,
1097,condition1,0.13,0,filler_bad,Hanako said: Amy didn't suggest that the book about astronomy was on the shelf.,124,13911,6,suggest,,
1097,condition1,0.65,1,say_adv,Hanako said: Jessie didn't say loudly that Penny won the lottery.,11,12575,7,say loudly,,
1097,condition1,0.01,1,filler_bad,Hanako said: Matthew didn't imply that Karl and Nick cooked dinner.,117,7859,8,imply,,
1097,condition1,0.22,1,filler_bad,Hanako said: Howard didn't reveal that Krisha's parents were moving to Texas.,123,10648,9,reveal,,
1097,condition1,1,1,filler_good,Hanako said: Helen didn't speculate that Jennifer got a cat.,105,12046,10,speculate,,
1097,condition1,0.93,1,filler_good,Hanako said: Ashley didn't insist that Doug would invite the mayor.,102,14073,11,insist,,
1097,condition1,0.51,1,say,Hanako said: Julian didn't say that Charlie saw the robber.,6,11628,12,say,,
1097,condition1,0.3,2,filler_good,Hanako said: Fatima didn't suggest that Maddie would call her roommate.,106,10146,13,suggest,,
1097,condition1,0.69,2,say_adv,Hanako said: Ollie didn't say ruefully that Omar had dinner with his manager.,10,27059,14,say ruefully,,
1097,condition1,0.97,2,filler_good,Hanako said: Bill didn't suspect that Karen wrote a book.,104,7006,15,suspect,,
1097,condition1,0.42,2,say,Hanako said: Larry didn't say that Tia brought her parents.,12,14625,16,say,,
1097,condition1,0.02,2,filler_bad,Hanako said: Laura didn't expect that Rob and Marc cut the bread. ,114,7096,17,expect,,
1097,condition1,0,2,filler_bad,Hanako said: Ted didn't hope that Frank and Lisa were in the office.,116,7873,18,hope,,
1097,condition1,0.93,3,filler_good,Hanako said: Frankie didn't think that Charlie received a message.,110,6578,19,think,,
1097,condition1,0.88,3,say_adv,Hanako said: John didn't say quietly that Ming forgot her phone. ,9,9651,20,say quietly,,
1097,condition1,0.84,3,filler_good,Hanako said: Danny didn't imply that Dana brought a gift.,108,7326,21,imply,,
1097,condition1,0,3,filler_bad,Hanako said: Rui didn't suspect that Judith and Laura would order pizza.,118,13336,22,suspect,,
1097,condition1,0.98,3,say,Hanako said: Charlie didn't say that Dan knew the professor.,5,5981,23,say,,
1097,condition1,0.01,3,filler_bad,Hanako said: Emily didn't think that Liz and Jason drank the beer. ,115,5756,24,think,,
1097,condition1,0.94,4,say,Hanako said: Yash didn't say that Brandon broke his laptop.,4,10180,25,say,,
1097,condition1,0.74,4,say_adv,Hanako said: Hannah didn't say bluntly that Kevin lost the keys.,2,9096,26,say bluntly,,
1097,condition1,0.32,4,filler_good,Hanako said: Jamal didn't hope that Julian ate the cupcake.,103,9169,27,hope,,
1097,condition1,0.02,4,filler_bad,Hanako said: Grace didn't speculate that the assistant to the director would give the presentation.,122,9408,28,speculate,,
1097,condition1,0,4,filler_bad,Hanako said: Tony didn't expect that the agent of the guitarist would show up.,120,9316,29,expect,,
1097,condition1,0.63,4,filler_good,Hanako said: Igor didn't believe that Jacy rented the truck.,107,5532,30,believe,,
1097,condition1,0.93,5,say,Hanako said: Jake didn't say that Hasan talked to the detectives.,8,6269,31,say,,
1097,condition1,0.01,5,filler_bad,Hanako said: Emma didn't guess that Kevin and Paul drafted the letter.,113,6587,32,guess,,
1097,condition1,0.75,5,say_adv,Hanako said: Nancy didn't say calmly that Alex bought a birthday cake.,3,7881,33,say calmly,,
1097,condition1,0.75,5,filler_good,Hanako said: Kate didn't expect that Tony would visit George.,112,6893,34,expect,,
1097,condition1,0.77,5,filler_good,Hanako said: Sally didn't guess that Todd went out with Betty.,111,6419,35,guess,,
1097,condition1,0.28,5,filler_bad,Hanako said: Jess didn't believe that Carol's brother signed the contract.,119,8209,36,believe,,
1061,condition1,0.7,practice,practice_acceptability_good_1,Hanako said: Fiona didn't buy pineapple.,201,,0,NA,0,
1061,condition1,0,practice,practice_accpetability_bad_2,Hanako said: Prisha doesn't speak Korean.,204,,0,NA,0,
1061,condition1,0.61,0,filler_good,Hanako said: Igor didn't suggest that Todd went out with Betty.,111,19918,1,suggest,,
1061,condition1,0.23,0,filler_good,Hanako said: Bill didn't believe that Charlie received a message.,110,12355,2,believe,,
1061,condition1,0.71,0,say,Hanako said: Kate didn't say that Dan knew the professor.,5,9354,3,say,,
1061,condition1,0.08,0,filler_bad,Hanako said: Ben didn't imply that Eva's uncle should stay for dinner.,121,41735,4,imply,,
1061,condition1,0.06,0,filler_bad,Hanako said: Jess didn't expect that Karl and Nick cooked dinner.,117,8312,5,expect,,
1061,condition1,0.02,0,say_adv,Hanako said: John didn't say quietly that Hasan talked to the detectives.,8,9529,6,say quietly,,
1061,condition1,0.3,1,filler_good,Hanako said: Jamal didn't expect that George emailed the students.,101,12934,7,expect,,
1061,condition1,0.24,1,say_adv,Hanako said: Laura didn't say wistfully that Charlie saw the robber.,6,12016,8,say wistfully,,
1061,condition1,0.24,1,filler_good,Hanako said: Howard didn't think that Tony would visit George.,112,6368,9,think,,
1061,condition1,0.7,1,say,Hanako said: Julian didn't say that Kevin lost the keys.,2,33256,10,say,,
1061,condition1,0.01,1,filler_bad,Hanako said: Matthew didn't speculate that Kevin and Paul drafted the letter.,113,6265,11,speculate,,
1061,condition1,0.18,1,filler_bad,Hanako said: Ashley didn't suggest that the book about astronomy was on the shelf.,124,20546,12,suggest,,
1061,condition1,0.01,2,filler_bad,Hanako said: Tony didn't reveal that the agent of the guitarist would show up.,120,8825,13,reveal,,
1061,condition1,0.37,2,say_adv,Hanako said: Jake didn't say wearily that Yumi found the wallet.,7,7431,14,say wearily,,
1061,condition1,0.59,2,say,Hanako said: Donald didn't say that Omar had dinner with his manager.,10,5178,15,say,,
1061,condition1,0.69,2,filler_good,Hanako said: Sally didn't insist that Doug would invite the mayor.,102,10715,16,insist,,
1061,condition1,0.73,2,filler_good,Hanako said: Amy didn't speculate that Jennifer got a cat.,105,3754,17,speculate,,
1061,condition1,0,2,filler_bad,Hanako said: Frankie didn't expect that Liz and Jason drank the beer. ,115,7461,18,expect,,
1061,condition1,0.19,3,filler_bad,Hanako said: Ollie didn't think that the assistant to the director would give the presentation.,122,8491,19,think,,
1061,condition1,0.47,3,say,Hanako said: Charlie didn't say that Brandon broke his laptop.,4,53812,20,say,,
1061,condition1,0.6,3,filler_good,Hanako said: Grace didn't guess that Zack broke the plates.,109,7144,21,guess,,
1061,condition1,0,3,filler_bad,Hanako said: Rui didn't hope that Rob and Marc cut the bread. ,114,6997,22,hope,,
1061,condition1,0.27,3,say_adv,Hanako said: Jessie didn't say bluntly that Ming forgot her phone. ,9,7407,23,say bluntly,,
1061,condition1,0.66,3,filler_good,Hanako said: Danny didn't expect that Julian ate the cupcake.,103,4482,24,expect,,
1061,condition1,0.4,4,filler_bad,Hanako said: Larry didn't guess that Carol's brother signed the contract.,119,7356,25,guess,,
1061,condition1,0.56,4,say_adv,Hanako said: Chandler didn't say cheerfully that Tia brought her parents.,12,5794,26,say cheerfully,,
1061,condition1,0.68,4,filler_good,Hanako said: Emily didn't suspect that Jacy rented the truck.,107,5640,27,suspect,,
1061,condition1,0.66,4,filler_good,Hanako said: Ted didn't imply that Karen wrote a book.,104,3445,28,imply,,
1061,condition1,0.13,4,filler_bad,Hanako said: Ronald didn't insist that Judith and Laura would order pizza.,118,4560,29,insist,,
1061,condition1,0.63,4,say,Hanako said: Fatima didn't say that Penny won the lottery.,11,4354,30,say,,
1061,condition1,0.02,5,filler_bad,Hanako said: Yash didn't believe that Frank and Lisa were in the office.,116,7383,31,believe,,
1061,condition1,0.55,5,say,Hanako said: Tim didn't say that Mary met with the lawyer.,1,14623,32,say,,
1061,condition1,0.58,5,say_adv,Hanako said: Hannah didn't say calmly that Alex bought a birthday cake.,3,13565,33,say calmly,,
1061,condition1,0.24,5,filler_bad,Hanako said: Nancy didn't suspect that Krisha's parents were moving to Texas.,123,5189,34,suspect,,
1061,condition1,1,5,filler_good,Hanako said: Emma didn't reveal that Dana brought a gift.,108,15635,35,reveal,,
1061,condition1,0.82,5,filler_good,Hanako said: Helen didn't hope that Maddie would call her roommate.,106,3599,36,hope,,
1087,condition1,0.99,practice,practice_acceptability_good_1,Hanako said: Fiona didn't buy pineapple.,201,,0,NA,0,
1087,condition1,0,practice,practice_accpetability_bad_2,Hanako said: Prisha doesn't speak Korean.,204,,0,NA,0,
1087,condition1,0.9,0,say,Hanako said: Jamal didn't say that Dan knew the professor.,5,12533,1,say,,
1087,condition1,0.12,0,filler_bad,Hanako said: Larry didn't expect that Krisha's parents were moving to Texas.,123,10450,2,expect,,
1087,condition1,0.17,0,say_adv,Hanako said: John didn't say softly that Tia brought her parents.,12,11450,3,say softly,,
1087,condition1,1,0,filler_good,Hanako said: Jessie didn't guess that Dana brought a gift.,108,7051,4,guess,,
1087,condition1,1,0,filler_good,Hanako said: Ronald didn't speculate that Jennifer got a cat.,105,6215,5,speculate,,
1087,condition1,0,0,filler_bad,Hanako said: Frankie didn't believe that Frank and Lisa were in the office.,116,7968,6,believe,,
1087,condition1,0.99,1,filler_good,Hanako said: Matthew didn't expect that Jacy rented the truck.,107,7852,7,expect,,
1087,condition1,0.99,1,filler_good,Hanako said: Rui didn't imply that Zack broke the plates.,109,6097,8,imply,,
1087,condition1,0.86,1,say,Hanako said: Ashley didn't say that Penny won the lottery.,11,9850,9,say,,
1087,condition1,0.08,1,filler_bad,Hanako said: Jess didn't guess that the assistant to the director would give the presentation.,122,12733,10,guess,,
1087,condition1,0,1,filler_bad,Hanako said: Sally didn't reveal that Kevin and Paul drafted the letter.,113,8218,11,reveal,,
1087,condition1,0.65,1,say_adv,Hanako said: Laura didn't say calmly that Alex bought a birthday cake.,3,12482,12,say calmly,,
1087,condition1,1,2,filler_good,Hanako said: Donald didn't hope that Julian ate the cupcake.,103,5034,13,hope,,
1087,condition1,0.99,2,filler_good,Hanako said: Emily didn't reveal that Doug would invite the mayor.,102,5318,14,reveal,,
1087,condition1,1,2,say_adv,Hanako said: Igor didn't say ruefully that Brandon broke his laptop.,4,9130,15,say ruefully,,
1087,condition1,0,2,filler_bad,Hanako said: Ollie didn't insist that Liz and Jason drank the beer. ,115,6018,16,insist,,
1087,condition1,0,2,filler_bad,Hanako said: Emma didn't think that Judith and Laura would order pizza.,118,10566,17,think,,
1087,condition1,1,2,say,Hanako said: Ted didn't say that Mary met with the lawyer.,1,6534,18,say,,
1087,condition1,0,3,filler_bad,Hanako said: Tony didn't speculate that the book about astronomy was on the shelf.,124,7799,19,speculate,,
1087,condition1,0.49,3,say_adv,Hanako said: Charlie didn't say cheerfully that Charlie saw the robber.,6,10350,20,say cheerfully,,
1087,condition1,1,3,filler_good,Hanako said: Julian didn't suspect that Tony would visit George.,112,6749,21,suspect,,
1087,condition1,1,3,filler_good,Hanako said: Nancy didn't think that Maddie would call her roommate.,106,6183,22,think,,
1087,condition1,0.4,3,filler_bad,Hanako said: Amy didn't suggest that Eva's uncle should stay for dinner.,121,7753,23,suggest,,
1087,condition1,1,3,say,Hanako said: Tim didn't say that Kevin lost the keys.,2,6167,24,say,,
1087,condition1,0.16,4,filler_bad,Hanako said: Ben didn't imply that Carol's brother signed the contract.,119,5530,25,imply,,
1087,condition1,1,4,say,Hanako said: Jake didn't say that Ming forgot her phone. ,9,5284,26,say,,
1087,condition1,0.56,4,say_adv,Hanako said: Howard didn't say quietly that Omar had dinner with his manager.,10,9301,27,say quietly,,
1087,condition1,1,4,filler_good,Hanako said: Helen didn't insist that Charlie received a message.,110,4418,28,insist,,
1087,condition1,1,4,filler_good,Hanako said: Danny didn't suggest that George emailed the students.,101,6231,29,suggest,,
1087,condition1,0,4,filler_bad,Hanako said: Yash didn't expect that Rob and Marc cut the bread. ,114,6549,30,expect,,
1087,condition1,0.17,5,say_adv,Hanako said: Hannah didn't say sternly that Hasan talked to the detectives.,8,7233,31,say sternly,,
1087,condition1,1,5,say,Hanako said: Kate didn't say that Yumi found the wallet.,7,5584,32,say,,
1087,condition1,0.15,5,filler_bad,Hanako said: Fatima didn't hope that the agent of the guitarist would show up.,120,6550,33,hope,,
1087,condition1,0.49,5,filler_good,Hanako said: Bill didn't expect that Karen wrote a book.,104,5666,34,expect,,
1087,condition1,0.85,5,filler_good,Hanako said: Grace didn't believe that Todd went out with Betty.,111,8351,35,believe,,
1087,condition1,0,5,filler_bad,Hanako said: Chandler didn't suspect that Karl and Nick cooked dinner.,117,4798,36,suspect,,
1150,condition1,0.97,practice,practice_acceptability_good_1,Hanako said: Fiona didn't buy pineapple.,201,,0,NA,0,
1150,condition1,0.01,practice,practice_accpetability_bad_2,Hanako said: Prisha doesn't speak Korean.,204,,0,NA,0,
1150,condition1,0.79,0,say_adv,Hanako said: Jamal didn't say bluntly that Ming forgot her phone. ,9,7785,1,say bluntly,,
1150,condition1,0.02,0,filler_bad,Hanako said: Jessie didn't imply that Rob and Marc cut the bread. ,114,38546,2,imply,,
1150,condition1,0.46,0,filler_good,Hanako said: Bill didn't suggest that Jacy rented the truck.,107,27194,3,suggest,,
1150,condition1,0.13,0,filler_bad,Hanako said: Kate didn't believe that Liz and Jason drank the beer. ,115,9096,4,believe,,
1150,condition1,0.73,0,filler_good,Hanako said: Ollie didn't reveal that Karen wrote a book.,104,14331,5,reveal,,
1150,condition1,0.47,0,say,Hanako said: John didn't say that Brandon broke his laptop.,4,5884,6,say,,
1150,condition1,0.57,1,say,Hanako said: Sally didn't say that Penny won the lottery.,11,45923,7,say,,
1150,condition1,0.77,1,filler_bad,Hanako said: Laura didn't speculate that the assistant to the director would give the presentation.,122,14660,8,speculate,,
1150,condition1,0.34,1,filler_good,Hanako said: Jake didn't expect that Jennifer got a cat.,105,14486,9,expect,,
1150,condition1,0.01,1,filler_bad,Hanako said: Larry didn't suggest that Judith and Laura would order pizza.,118,7325,10,suggest,,
1150,condition1,0.6,1,filler_good,Hanako said: Donald didn't insist that Todd went out with Betty.,111,6319,11,insist,,
1150,condition1,0.24,1,say_adv,Hanako said: Amy didn't say wearily that Kevin lost the keys.,2,6900,12,say wearily,,
1150,condition1,0.75,2,filler_good,Hanako said: Julian didn't speculate that Zack broke the plates.,109,4911,13,speculate,,
1150,condition1,0.56,2,say,Hanako said: Igor didn't say that Hasan talked to the detectives.,8,9160,14,say,,
1150,condition1,0.33,2,say_adv,Hanako said: Ben didn't say calmly that Yumi found the wallet.,7,6318,15,say calmly,,
1150,condition1,0.13,2,filler_bad,Hanako said: Fatima didn't think that Krisha's parents were moving to Texas.,123,7231,16,think,,
1150,condition1,0.97,2,filler_good,Hanako said: Grace didn't believe that Doug would invite the mayor.,102,5691,17,believe,,
1150,condition1,0.03,2,filler_bad,Hanako said: Rui didn't guess that Karl and Nick cooked dinner.,117,23867,18,guess,,
1150,condition1,0.97,3,filler_good,Hanako said: Ashley didn't expect that Tony would visit George.,112,61839,19,expect,,
1150,condition1,0.96,3,say,Hanako said: Ronald didn't say that Mary met with the lawyer.,1,5773,20,say,,
1150,condition1,0.01,3,filler_bad,Hanako said: Emily didn't expect that Kevin and Paul drafted the letter.,113,8053,21,expect,,
1150,condition1,0.39,3,say_adv,Hanako said: Nancy didn't say softly that Charlie saw the robber.,6,6660,22,say softly,,
1150,condition1,0.93,3,filler_good,Hanako said: Emma didn't imply that George emailed the students.,101,5291,23,imply,,
1150,condition1,0.33,3,filler_bad,Hanako said: Tony didn't hope that the book about astronomy was on the shelf.,124,13515,24,hope,,
1150,condition1,0.54,4,filler_good,Hanako said: Yash didn't suspect that Dana brought a gift.,108,7091,25,suspect,,
1150,condition1,0.01,4,filler_bad,Hanako said: Howard didn't insist that Frank and Lisa were in the office.,116,8255,26,insist,,
1150,condition1,0.78,4,filler_good,Hanako said: Danny didn't think that Maddie would call her roommate.,106,19905,27,think,,
1150,condition1,0.43,4,say,Hanako said: Frankie didn't say that Dan knew the professor.,5,50930,28,say,,
1150,condition1,0.25,4,say_adv,Hanako said: Ted didn't say dryly that Alex bought a birthday cake.,3,5211,29,say dryly,,
1150,condition1,0.04,4,filler_bad,Hanako said: Jess didn't expect that Carol's brother signed the contract.,119,7163,30,expect,,
1150,condition1,0.66,5,say,Hanako said: Tim didn't say that Omar had dinner with his manager.,10,6621,31,say,,
1150,condition1,0.02,5,filler_bad,Hanako said: Hannah didn't reveal that Eva's uncle should stay for dinner.,121,6813,32,reveal,,
1150,condition1,0.51,5,filler_good,Hanako said: Helen didn't hope that Julian ate the cupcake.,103,5189,33,hope,,
1150,condition1,0.29,5,say_adv,Hanako said: Chandler didn't say sternly that Tia brought her parents.,12,15620,34,say sternly,,
1150,condition1,0.22,5,filler_bad,Hanako said: Matthew didn't suspect that the agent of the guitarist would show up.,120,20777,35,suspect,,
1150,condition1,0.57,5,filler_good,Hanako said: Charlie didn't guess that Charlie received a message.,110,10157,36,guess,,
1283,condition1,0.96,practice,practice_acceptability_good_1,Hanako said: Fiona didn't buy pineapple.,201,,0,NA,0,
1283,condition1,0.02,practice,practice_accpetability_bad_2,Hanako said: Prisha doesn't speak Korean.,204,,0,NA,0,
1283,condition1,0.03,0,filler_bad,Hanako said: Frankie didn't suggest that Rob and Marc cut the bread. ,114,16878,1,suggest,,
1283,condition1,0.03,0,say_adv,Hanako said: Tony didn't say calmly that Brandon broke his laptop.,4,11480,2,say calmly,,
1283,condition1,0,0,filler_good,Hanako said: Hannah didn't believe that Jacy rented the truck.,107,6472,3,believe,,
1283,condition1,0.05,0,filler_good,Hanako said: Helen didn't expect that Jennifer got a cat.,105,8695,4,expect,,
1283,condition1,0.01,0,filler_bad,Hanako said: Jess didn't reveal that Carol's brother signed the contract.,119,6936,5,reveal,,
1283,condition1,0.4,0,say,Hanako said: Fatima didn't say that Omar had dinner with his manager.,10,8376,6,say,,
1283,condition1,0.01,1,filler_good,Hanako said: Julian didn't hope that Dana brought a gift.,108,5645,7,hope,,
1283,condition1,0.02,1,filler_bad,Hanako said: Emily didn't guess that Kevin and Paul drafted the letter.,113,9091,8,guess,,
1283,condition1,0.42,1,say_adv,Hanako said: Larry didn't say quietly that Mary met with the lawyer.,1,7703,9,say quietly,,
1283,condition1,0.12,1,filler_good,Hanako said: Jake didn't think that Doug would invite the mayor.,102,11066,10,think,,
1283,condition1,0,1,filler_bad,Hanako said: Ollie didn't expect that Judith and Laura would order pizza.,118,7221,11,expect,,
1283,condition1,0.02,1,say,Hanako said: Sally didn't say that Ming forgot her phone. ,9,6148,12,say,,
1283,condition1,0.41,2,filler_good,Hanako said: Ashley didn't guess that Zack broke the plates.,109,8383,13,guess,,
1283,condition1,0.02,2,filler_bad,Hanako said: Tim didn't expect that Liz and Jason drank the beer. ,115,3374,14,expect,,
1283,condition1,0.02,2,filler_bad,Hanako said: Ted didn't believe that Karl and Nick cooked dinner.,117,2795,15,believe,,
1283,condition1,0.45,2,say_adv,Hanako said: Danny didn't say wearily that Hasan talked to the detectives.,8,7623,16,say wearily,,
1283,condition1,0.45,2,say,Hanako said: Ben didn't say that Dan knew the professor.,5,6515,17,say,,
1283,condition1,0.46,2,filler_good,Hanako said: Grace didn't imply that George emailed the students.,101,2583,18,imply,,
1283,condition1,0.45,3,say,Hanako said: Jamal didn't say that Charlie saw the robber.,6,3014,19,say,,
1283,condition1,0.45,3,filler_bad,Hanako said: Charlie didn't think that the book about astronomy was on the shelf.,124,1562,20,think,,
1283,condition1,0.01,3,say_adv,Hanako said: Laura didn't say bluntly that Penny won the lottery.,11,3961,21,say bluntly,,
1283,condition1,0.03,3,filler_good,Hanako said: John didn't expect that Karen wrote a book.,104,5612,22,expect,,
1283,condition1,0,3,filler_bad,Hanako said: Howard didn't imply that Krisha's parents were moving to Texas.,123,2027,23,imply,,
1283,condition1,0.01,3,filler_good,Hanako said: Rui didn't suggest that Todd went out with Betty.,111,1832,24,suggest,,
1283,condition1,0.48,4,filler_good,Hanako said: Ronald didn't reveal that Tony would visit George.,112,4919,25,reveal,,
1283,condition1,0.04,4,filler_bad,Hanako said: Yash didn't hope that Eva's uncle should stay for dinner.,121,6037,26,hope,,
1283,condition1,0.01,4,say,Hanako said: Igor didn't say that Tia brought her parents.,12,5240,27,say,,
1283,condition1,0.03,4,filler_good,Hanako said: Nancy didn't suspect that Charlie received a message.,110,3499,28,suspect,,
1283,condition1,0.03,4,filler_bad,Hanako said: Kate didn't speculate that Frank and Lisa were in the office.,116,1765,29,speculate,,
1283,condition1,0.05,4,say_adv,Hanako said: Jessie didn't say softly that Kevin lost the keys.,2,1734,30,say softly,,
1283,condition1,0.01,5,filler_good,Hanako said: Emma didn't speculate that Julian ate the cupcake.,103,1922,31,speculate,,
1283,condition1,0,5,filler_bad,Hanako said: Chandler didn't suspect that the agent of the guitarist would show up.,120,2840,32,suspect,,
1283,condition1,0.06,5,filler_good,Hanako said: Donald didn't insist that Maddie would call her roommate.,106,2198,33,insist,,
1283,condition1,0.04,5,say,Hanako said: Amy didn't say that Alex bought a birthday cake.,3,1643,34,say,,
1283,condition1,0,5,say_adv,Hanako said: Bill didn't say wistfully that Yumi found the wallet.,7,1815,35,say wistfully,,
1283,condition1,0.01,5,filler_bad,Hanako said: Matthew didn't insist that the assistant to the director would give the presentation.,122,2449,36,insist,,
1142,condition1,1,practice,practice_acceptability_good_1,Hanako said: Fiona didn't buy pineapple.,201,,0,NA,0,
1142,condition1,0.02,practice,practice_accpetability_bad_2,Hanako said: Prisha doesn't speak Korean.,204,,0,NA,0,
1142,condition1,0.37,0,filler_good,Hanako said: Jake didn't insist that Maddie would call her roommate.,106,11212,1,insist,,
1142,condition1,0.27,0,say_adv,Hanako said: Kate didn't say calmly that Alex bought a birthday cake.,3,9466,2,say calmly,,
1142,condition1,0.02,0,filler_bad,Hanako said: Tim didn't suspect that Kevin and Paul drafted the letter.,113,11365,3,suspect,,
1142,condition1,0.66,0,say,Hanako said: Julian didn't say that Yumi found the wallet.,7,9807,4,say,,
1142,condition1,0.02,0,filler_bad,Hanako said: Ollie didn't believe that Liz and Jason drank the beer. ,115,7766,5,believe,,
1142,condition1,0.94,0,filler_good,Hanako said: Yash didn't think that Zack broke the plates.,109,7729,6,think,,
1142,condition1,0.41,1,filler_bad,Hanako said: Tony didn't expect that Judith and Laura would order pizza.,118,6256,7,expect,,
1142,condition1,0.79,1,filler_good,Hanako said: Matthew didn't expect that George emailed the students.,101,7064,8,expect,,
1142,condition1,0.71,1,say,Hanako said: Larry didn't say that Mary met with the lawyer.,1,7693,9,say,,
1142,condition1,0.16,1,say_adv,Hanako said: Jessie didn't say sternly that Dan knew the professor.,5,10308,10,say sternly,,
1142,condition1,0.16,1,filler_bad,Hanako said: Danny didn't guess that Rob and Marc cut the bread. ,114,11374,11,guess,,
1142,condition1,0.71,1,filler_good,Hanako said: Hannah didn't speculate that Tony would visit George.,112,7600,12,speculate,,
1142,condition1,0.71,2,filler_good,Hanako said: John didn't imply that Dana brought a gift.,108,9013,13,imply,,
1142,condition1,0.69,2,filler_good,Hanako said: Laura didn't reveal that Jacy rented the truck.,107,4668,14,reveal,,
1142,condition1,0.28,2,say_adv,Hanako said: Sally didn't say loudly that Ming forgot her phone. ,9,10005,15,say loudly,,
1142,condition1,0.06,2,filler_bad,Hanako said: Ashley didn't insist that Karl and Nick cooked dinner.,117,6212,16,insist,,
1142,condition1,0.71,2,say,Hanako said: Ben didn't say that Hasan talked to the detectives.,8,9532,17,say,,
1142,condition1,0.33,2,filler_bad,Hanako said: Grace didn't suggest that Krisha's parents were moving to Texas.,123,7114,18,suggest,,
1142,condition1,0.81,3,filler_good,Hanako said: Fatima didn't believe that Todd went out with Betty.,111,4787,19,believe,,
1142,condition1,0.38,3,say_adv,Hanako said: Ted didn't say ruefully that Brandon broke his laptop.,4,8188,20,say ruefully,,
1142,condition1,0.78,3,filler_good,Hanako said: Rui didn't guess that Julian ate the cupcake.,103,7457,21,guess,,
1142,condition1,0.04,3,filler_bad,Hanako said: Donald didn't expect that Frank and Lisa were in the office.,116,6728,22,expect,,
1142,condition1,0.5,3,say,Hanako said: Nancy didn't say that Charlie saw the robber.,6,8144,23,say,,
1142,condition1,0.11,3,filler_bad,Hanako said: Howard didn't speculate that the book about astronomy was on the shelf.,124,9455,24,speculate,,
1142,condition1,0.82,4,filler_good,Hanako said: Bill didn't suggest that Doug would invite the mayor.,102,14087,25,suggest,,
1142,condition1,0.74,4,filler_good,Hanako said: Frankie didn't expect that Karen wrote a book.,104,4457,26,expect,,
1142,condition1,0.2,4,say_adv,Hanako said: Jess didn't say gently that Omar had dinner with his manager.,10,9367,27,say gently,,
1142,condition1,0.24,4,filler_bad,Hanako said: Charlie didn't think that Carol's brother signed the contract.,119,17494,28,think,,
1142,condition1,0.07,4,filler_bad,Hanako said: Igor didn't imply that the assistant to the director would give the presentation.,122,9704,29,imply,,
1142,condition1,0.56,4,say,Hanako said: Ronald didn't say that Penny won the lottery.,11,20971,30,say,,
1142,condition1,0.7,5,say,Hanako said: Emma didn't say that Kevin lost the keys.,2,5904,31,say,,
1142,condition1,0.36,5,say_adv,Hanako said: Emily didn't say wearily that Tia brought her parents.,12,7808,32,say wearily,,
1142,condition1,0.25,5,filler_bad,Hanako said: Jamal didn't reveal that the agent of the guitarist would show up.,120,9438,33,reveal,,
1142,condition1,0.78,5,filler_good,Hanako said: Amy didn't hope that Charlie received a message.,110,3791,34,hope,,
1142,condition1,0.26,5,filler_bad,Hanako said: Helen didn't hope that Eva's uncle should stay for dinner.,121,6886,35,hope,,
1142,condition1,0.85,5,filler_good,Hanako said: Chandler didn't suspect that Jennifer got a cat.,105,12424,36,suspect,,
1295,condition1,0.86,practice,practice_acceptability_good_1,Hanako said: Fiona didn't buy pineapple.,201,,0,NA,0,
1295,condition1,0.03,practice,practice_accpetability_bad_2,Hanako said: Prisha doesn't speak Korean.,204,,0,NA,0,
1295,condition1,0.01,0,filler_bad,Hanako said: Howard didn't imply that Kevin and Paul drafted the letter.,113,16289,1,imply,,
1295,condition1,0.01,0,say_adv,Hanako said: Igor didn't say calmly that Dan knew the professor.,5,8486,2,say calmly,,
1295,condition1,0.02,0,filler_bad,Hanako said: Larry didn't reveal that Judith and Laura would order pizza.,118,15066,3,reveal,,
1295,condition1,0.98,0,filler_good,Hanako said: Ben didn't think that Maddie would call her roommate.,106,5239,4,think,,
1295,condition1,0.99,0,say,Hanako said: Hannah didn't say that Yumi found the wallet.,7,8662,5,say,,
1295,condition1,0.98,0,filler_good,Hanako said: Matthew didn't expect that Tony would visit George.,112,6544,6,expect,,
1295,condition1,0.01,1,say_adv,Hanako said: Fatima didn't say gently that Penny won the lottery.,11,9076,7,say gently,,
1295,condition1,0.03,1,filler_bad,Hanako said: Donald didn't expect that Liz and Jason drank the beer. ,115,9602,8,expect,,
1295,condition1,0.08,1,filler_bad,Hanako said: Grace didn't suspect that the book about astronomy was on the shelf.,124,11509,9,suspect,,
1295,condition1,0.97,1,say,Hanako said: Ted didn't say that Alex bought a birthday cake.,3,4950,10,say,,
1295,condition1,0.97,1,filler_good,Hanako said: Jake didn't suggest that Dana brought a gift.,108,4286,11,suggest,,
1295,condition1,0.99,1,filler_good,Hanako said: Sally didn't suspect that Zack broke the plates.,109,6372,12,suspect,,
1295,condition1,0.98,2,filler_bad,Hanako said: Nancy didn't think that the assistant to the director would give the presentation.,122,5358,13,think,,
1295,condition1,0.96,2,filler_good,Hanako said: Helen didn't imply that Jacy rented the truck.,107,61117,14,imply,,
1295,condition1,0.95,2,filler_good,Hanako said: Laura didn't hope that George emailed the students.,101,6487,15,hope,,
1295,condition1,0.03,2,say_adv,Hanako said: Yash didn't say sternly that Charlie saw the robber.,6,6763,16,say sternly,,
1295,condition1,0.96,2,filler_bad,Hanako said: Ronald didn't hope that Eva's uncle should stay for dinner.,121,5169,17,hope,,
1295,condition1,0.97,2,say,Hanako said: Emily didn't say that Tia brought her parents.,12,6391,18,say,,
1295,condition1,0.99,3,say,Hanako said: Tony didn't say that Ming forgot her phone. ,9,4227,19,say,,
1295,condition1,0.03,3,filler_bad,Hanako said: Bill didn't guess that Carol's brother signed the contract.,119,7495,20,guess,,
1295,condition1,0.96,3,filler_good,Hanako said: Ashley didn't insist that Doug would invite the mayor.,102,3019,21,insist,,
1295,condition1,0.98,3,filler_bad,Hanako said: Kate didn't speculate that Krisha's parents were moving to Texas.,123,5062,22,speculate,,
1295,condition1,0.98,3,filler_good,Hanako said: Jamal didn't guess that Todd went out with Betty.,111,4868,23,guess,,
1295,condition1,0.8,3,say_adv,Hanako said: Ollie didn't say cheerfully that Mary met with the lawyer.,1,9187,24,say cheerfully,,
1295,condition1,0.96,4,filler_good,Hanako said: Danny didn't expect that Jennifer got a cat.,105,6596,25,expect,,
1295,condition1,0.98,4,filler_good,Hanako said: Frankie didn't speculate that Julian ate the cupcake.,103,4710,26,speculate,,
1295,condition1,0.15,4,say_adv,Hanako said: Jess didn't say softly that Hasan talked to the detectives.,8,6869,27,say softly,,
1295,condition1,0.19,4,filler_bad,Hanako said: Emma didn't believe that the agent of the guitarist would show up.,120,6255,28,believe,,
1295,condition1,0.02,4,filler_bad,Hanako said: Amy didn't insist that Frank and Lisa were in the office.,116,6395,29,insist,,
1295,condition1,0.95,4,say,Hanako said: Tim didn't say that Kevin lost the keys.,2,6812,30,say,,
1295,condition1,1,5,filler_good,Hanako said: Julian didn't reveal that Karen wrote a book.,104,16047,31,reveal,,
1295,condition1,0.03,5,filler_bad,Hanako said: Rui didn't expect that Karl and Nick cooked dinner.,117,6318,32,expect,,
1295,condition1,0.76,5,say_adv,Hanako said: Jessie didn't say loudly that Brandon broke his laptop.,4,6277,33,say loudly,,
1295,condition1,0.02,5,filler_bad,Hanako said: Charlie didn't suggest that Rob and Marc cut the bread. ,114,5748,34,suggest,,
1295,condition1,0.96,5,say,Hanako said: Chandler didn't say that Omar had dinner with his manager.,10,3327,35,say,,
1295,condition1,0.96,5,filler_good,Hanako said: John didn't believe that Charlie received a message.,110,4150,36,believe,,
1261,condition1,0.97,practice,practice_acceptability_good_1,Hanako said: Fiona didn't buy pineapple.,201,,0,NA,0,
1261,condition1,0,practice,practice_accpetability_bad_2,Hanako said: Prisha doesn't speak Korean.,204,,0,NA,1,
1261,condition1,0.01,0,filler_bad,Hanako said: Rui didn't guess that Frank and Lisa were in the office.,116,13310,1,guess,,
1261,condition1,0.71,0,filler_good,Hanako said: Hannah didn't hope that Dana brought a gift.,108,23542,2,hope,,
1261,condition1,0.01,0,filler_bad,Hanako said: Frankie didn't believe that Judith and Laura would order pizza.,118,11279,3,believe,,
1261,condition1,0.98,0,say,Hanako said: Ted didn't say that Mary met with the lawyer.,1,11613,4,say,,
1261,condition1,0.27,0,say_adv,Hanako said: Danny didn't say calmly that Yumi found the wallet.,7,11127,5,say calmly,,
1261,condition1,0.38,0,filler_good,Hanako said: Tim didn't speculate that Maddie would call her roommate.,106,21729,6,speculate,,
1261,condition1,0.01,1,filler_bad,Hanako said: Ashley didn't suspect that Rob and Marc cut the bread. ,114,8441,7,suspect,,
1261,condition1,0.96,1,say,Hanako said: Sally didn't say that Penny won the lottery.,11,13599,8,say,,
1261,condition1,0.58,1,filler_good,Hanako said: Igor didn't guess that Charlie received a message.,110,10329,9,guess,,
1261,condition1,0.22,1,say_adv,Hanako said: Fatima didn't say bluntly that Ming forgot her phone. ,9,9080,10,say bluntly,,
1261,condition1,0.03,1,filler_bad,Hanako said: Chandler didn't suggest that the book about astronomy was on the shelf.,124,13530,11,suggest,,
1261,condition1,0.8,1,filler_good,Hanako said: Howard didn't expect that Karen wrote a book.,104,5852,12,expect,,
1261,condition1,0.01,2,filler_bad,Hanako said: Jake didn't think that Karl and Nick cooked dinner.,117,8061,13,think,,
1261,condition1,0.12,2,filler_bad,Hanako said: Emily didn't expect that the agent of the guitarist would show up.,120,11486,14,expect,,
1261,condition1,0.74,2,say,Hanako said: John didn't say that Charlie saw the robber.,6,6228,15,say,,
1261,condition1,0.27,2,say_adv,Hanako said: Emma didn't say softly that Kevin lost the keys.,2,10372,16,say softly,,
1261,condition1,0.7,2,filler_good,Hanako said: Helen didn't suspect that George emailed the students.,101,6967,17,suspect,,
1261,condition1,0.95,2,filler_good,Hanako said: Jamal didn't reveal that Zack broke the plates.,109,9094,18,reveal,,
1261,condition1,0.95,3,say,Hanako said: Bill didn't say that Alex bought a birthday cake.,3,8098,19,say,,
1261,condition1,0.82,3,filler_good,Hanako said: Tony didn't imply that Doug would invite the mayor.,102,6825,20,imply,,
1261,condition1,0.01,3,filler_bad,Hanako said: Grace didn't expect that Kevin and Paul drafted the letter.,113,8112,21,expect,,
1261,condition1,0.87,3,filler_good,Hanako said: Amy didn't think that Todd went out with Betty.,111,12489,22,think,,
1261,condition1,0.21,3,filler_bad,Hanako said: Ben didn't speculate that Krisha's parents were moving to Texas.,123,11419,23,speculate,,
1261,condition1,0.33,3,say_adv,Hanako said: Matthew didn't say wistfully that Dan knew the professor.,5,8996,24,say wistfully,,
1261,condition1,0.27,4,say_adv,Hanako said: Donald didn't say loudly that Hasan talked to the detectives.,8,15646,25,say loudly,,
1261,condition1,0.34,4,filler_bad,Hanako said: Julian didn't insist that the assistant to the director would give the presentation.,122,12614,26,insist,,
1261,condition1,0.62,4,filler_good,Hanako said: Yash didn't expect that Jacy rented the truck.,107,9629,27,expect,,
1261,condition1,0.97,4,say,Hanako said: Jess didn't say that Tia brought her parents.,12,11952,28,say,,
1261,condition1,0.26,4,filler_bad,Hanako said: Kate didn't reveal that Eva's uncle should stay for dinner.,121,9680,29,reveal,,
1261,condition1,0.68,4,filler_good,Hanako said: Ollie didn't believe that Tony would visit George.,112,12379,30,believe,,
1261,condition1,0.01,5,filler_bad,Hanako said: Charlie didn't imply that Liz and Jason drank the beer. ,115,6685,31,imply,,
1261,condition1,0.94,5,say,Hanako said: Ronald didn't say that Omar had dinner with his manager.,10,7289,32,say,,
1261,condition1,0.23,5,filler_bad,Hanako said: Larry didn't hope that Carol's brother signed the contract.,119,11044,33,hope,,
1261,condition1,0.91,5,filler_good,Hanako said: Jessie didn't suggest that Jennifer got a cat.,105,7420,34,suggest,,
1261,condition1,0.94,5,filler_good,Hanako said: Nancy didn't insist that Julian ate the cupcake.,103,6253,35,insist,,
1261,condition1,0.26,5,say_adv,Hanako said: Laura didn't say wearily that Brandon broke his laptop.,4,11396,36,say wearily,,
1271,condition1,1,practice,practice_acceptability_good_1,Hanako said: Fiona didn't buy pineapple.,201,,0,NA,0,
1271,condition1,0,practice,practice_accpetability_bad_2,Hanako said: Prisha doesn't speak Korean.,204,,0,NA,0,
1271,condition1,0.75,0,say,Hanako said: Nancy didn't say that Kevin lost the keys.,2,24339,1,say,,
1271,condition1,0.06,0,filler_bad,Hanako said: Tony didn't expect that Carol's brother signed the contract.,119,17375,2,expect,,
1271,condition1,0.41,0,filler_good,Hanako said: Jake didn't think that Maddie would call her roommate.,106,22535,3,think,,
1271,condition1,0.15,0,filler_bad,Hanako said: Larry didn't suspect that Krisha's parents were moving to Texas.,123,7667,4,suspect,,
1271,condition1,0.98,0,filler_good,Hanako said: Jamal didn't speculate that Jacy rented the truck.,107,55891,5,speculate,,
1271,condition1,0.56,0,say_adv,Hanako said: Igor didn't say dryly that Alex bought a birthday cake.,3,8321,6,say dryly,,
1271,condition1,0.87,1,say,Hanako said: Ted didn't say that Penny won the lottery.,11,7140,7,say,,
1271,condition1,0.67,1,filler_good,Hanako said: Chandler didn't insist that Charlie received a message.,110,15496,8,insist,,
1271,condition1,0.29,1,filler_good,Hanako said: Bill didn't hope that Julian ate the cupcake.,103,9644,9,hope,,
1271,condition1,0.06,1,filler_bad,Hanako said: Tim didn't hope that Karl and Nick cooked dinner.,117,14961,10,hope,,
1271,condition1,0.61,1,say_adv,Hanako said: Laura didn't say ruefully that Hasan talked to the detectives.,8,10764,11,say ruefully,,
1271,condition1,0.09,1,filler_bad,Hanako said: Julian didn't suggest that the agent of the guitarist would show up.,120,22646,12,suggest,,
1271,condition1,0.03,2,filler_bad,Hanako said: Rui didn't expect that Kevin and Paul drafted the letter.,113,9829,13,expect,,
1271,condition1,0.84,2,filler_good,Hanako said: Charlie didn't imply that Dana brought a gift.,108,7291,14,imply,,
1271,condition1,0,2,filler_bad,Hanako said: Ronald didn't speculate that Rob and Marc cut the bread. ,114,13797,15,speculate,,
1271,condition1,0.53,2,say_adv,Hanako said: Amy didn't say cheerfully that Ming forgot her phone. ,9,12580,16,say cheerfully,,
1271,condition1,0.98,2,filler_good,Hanako said: Jess didn't expect that Tony would visit George.,112,11770,17,expect,,
1271,condition1,0.35,2,say,Hanako said: Ben didn't say that Brandon broke his laptop.,4,10304,18,say,,
1271,condition1,0.92,3,filler_good,Hanako said: Emily didn't guess that Todd went out with Betty.,111,13560,19,guess,,
1271,condition1,0.62,3,say_adv,Hanako said: Jessie didn't say gently that Tia brought her parents.,12,37003,20,say gently,,
1271,condition1,0.8,3,say,Hanako said: Hannah didn't say that Mary met with the lawyer.,1,6688,21,say,,
1271,condition1,0.03,3,filler_bad,Hanako said: Matthew didn't reveal that Liz and Jason drank the beer. ,115,4448,22,reveal,,
1271,condition1,0.04,3,filler_bad,Hanako said: Howard didn't believe that Judith and Laura would order pizza.,118,5205,23,believe,,
1271,condition1,0.92,3,filler_good,Hanako said: Ollie didn't suspect that Karen wrote a book.,104,3682,24,suspect,,
1271,condition1,0.8,4,say,Hanako said: Emma didn't say that Omar had dinner with his manager.,10,8983,25,say,,
1271,condition1,0.89,4,filler_good,Hanako said: John didn't believe that Jennifer got a cat.,105,7450,26,believe,,
1271,condition1,0.51,4,filler_bad,Hanako said: Frankie didn't guess that the book about astronomy was on the shelf.,124,11541,27,guess,,
1271,condition1,0.69,4,filler_bad,Hanako said: Danny didn't imply that Eva's uncle should stay for dinner.,121,5373,28,imply,,
1271,condition1,0.84,4,filler_good,Hanako said: Fatima didn't expect that George emailed the students.,101,2853,29,expect,,
1271,condition1,0.16,4,say_adv,Hanako said: Helen didn't say quietly that Yumi found the wallet.,7,8878,30,say quietly,,
1271,condition1,0.29,5,filler_bad,Hanako said: Donald didn't insist that the assistant to the director would give the presentation.,122,13661,31,insist,,
1271,condition1,0.82,5,say,Hanako said: Kate didn't say that Charlie saw the robber.,6,6221,32,say,,
1271,condition1,0.88,5,filler_good,Hanako said: Grace didn't reveal that Doug would invite the mayor.,102,3124,33,reveal,,
1271,condition1,0.87,5,filler_good,Hanako said: Yash didn't suggest that Zack broke the plates.,109,2499,34,suggest,,
1271,condition1,0.13,5,say_adv,Hanako said: Sally didn't say softly that Dan knew the professor.,5,4884,35,say softly,,
1271,condition1,0.24,5,filler_bad,Hanako said: Ashley didn't think that Frank and Lisa were in the office.,116,6944,36,think,,
1091,condition1,1,practice,practice_acceptability_good_1,Hanako said: Fiona didn't buy pineapple.,201,,0,NA,0,
1091,condition1,0,practice,practice_accpetability_bad_2,Hanako said: Prisha doesn't speak Korean.,204,,0,NA,1,
1091,condition1,1,0,filler_good,Hanako said: Helen didn't suggest that Maddie would call her roommate.,106,9366,1,suggest,,
1091,condition1,0,0,say_adv,Hanako said: Ronald didn't say softly that Charlie saw the robber.,6,8983,2,say softly,,
1091,condition1,1,0,say,Hanako said: Jamal didn't say that Mary met with the lawyer.,1,11542,3,say,,
1091,condition1,0,0,filler_bad,Hanako said: Danny didn't suggest that Karl and Nick cooked dinner.,117,12741,4,suggest,,
1091,condition1,1,0,filler_good,Hanako said: Jessie didn't suspect that Charlie received a message.,110,7984,5,suspect,,
1091,condition1,0.03,0,filler_bad,Hanako said: Bill didn't believe that the assistant to the director would give the presentation.,122,14815,6,believe,,
1091,condition1,0.32,1,say_adv,Hanako said: Matthew didn't say dryly that Tia brought her parents.,12,11528,7,say dryly,,
1091,condition1,0,1,filler_bad,Hanako said: Amy didn't reveal that Judith and Laura would order pizza.,118,9391,8,reveal,,
1091,condition1,1,1,filler_good,Hanako said: Julian didn't insist that Karen wrote a book.,104,4259,9,insist,,
1091,condition1,1,1,say,Hanako said: Ben didn't say that Dan knew the professor.,5,16640,10,say,,
1091,condition1,0.32,1,filler_good,Hanako said: John didn't expect that Jennifer got a cat.,105,10151,11,expect,,
1091,condition1,0,1,filler_bad,Hanako said: Jake didn't expect that Eva's uncle should stay for dinner.,121,9138,12,expect,,
1091,condition1,1,2,say,Hanako said: Yash didn't say that Yumi found the wallet.,7,6488,13,say,,
1091,condition1,0.62,2,filler_good,Hanako said: Grace didn't think that George emailed the students.,101,7879,14,think,,
1091,condition1,1,2,filler_good,Hanako said: Nancy didn't reveal that Zack broke the plates.,109,5095,15,reveal,,
1091,condition1,0.67,2,filler_bad,Hanako said: Emma didn't hope that the agent of the guitarist would show up.,120,7762,16,hope,,
1091,condition1,0.66,2,say_adv,Hanako said: Igor didn't say wearily that Kevin lost the keys.,2,11770,17,say wearily,,
1091,condition1,0,2,filler_bad,Hanako said: Howard didn't guess that Rob and Marc cut the bread. ,114,6450,18,guess,,
1091,condition1,0,3,filler_bad,Hanako said: Sally didn't speculate that Carol's brother signed the contract.,119,11452,19,speculate,,
1091,condition1,0.67,3,filler_good,Hanako said: Hannah didn't guess that Doug would invite the mayor.,102,9559,20,guess,,
1091,condition1,0,3,filler_bad,Hanako said: Frankie didn't think that Frank and Lisa were in the office.,116,9140,21,think,,
1091,condition1,0.33,3,say_adv,Hanako said: Chandler didn't say calmly that Alex bought a birthday cake.,3,8913,22,say calmly,,
1091,condition1,1,3,say,Hanako said: Tony didn't say that Hasan talked to the detectives.,8,9076,23,say,,
1091,condition1,0.64,3,filler_good,Hanako said: Ollie didn't imply that Todd went out with Betty.,111,10894,24,imply,,
1091,condition1,0,4,filler_bad,Hanako said: Laura didn't expect that Kevin and Paul drafted the letter.,113,23307,25,expect,,
1091,condition1,0.31,4,filler_good,Hanako said: Emily didn't hope that Julian ate the cupcake.,103,8876,26,hope,,
1091,condition1,0,4,filler_bad,Hanako said: Tim didn't imply that the book about astronomy was on the shelf.,124,6492,27,imply,,
1091,condition1,0.61,4,filler_good,Hanako said: Charlie didn't speculate that Dana brought a gift.,108,6685,28,speculate,,
1091,condition1,0.28,4,say,Hanako said: Donald didn't say that Ming forgot her phone. ,9,9826,29,say,,
1091,condition1,0.53,4,say_adv,Hanako said: Ted didn't say gently that Brandon broke his laptop.,4,14006,30,say gently,,
1091,condition1,1,5,filler_good,Hanako said: Fatima didn't expect that Tony would visit George.,112,5209,31,expect,,
1091,condition1,0,5,filler_bad,Hanako said: Ashley didn't insist that Krisha's parents were moving to Texas.,123,8141,32,insist,,
1091,condition1,0.35,5,filler_good,Hanako said: Kate didn't believe that Jacy rented the truck.,107,8291,33,believe,,
1091,condition1,1,5,say,Hanako said: Jess didn't say that Omar had dinner with his manager.,10,33858,34,say,,
1091,condition1,0,5,filler_bad,Hanako said: Larry didn't suspect that Liz and Jason drank the beer. ,115,5323,35,suspect,,
1091,condition1,0.29,5,say_adv,Hanako said: Rui didn't say quietly that Penny won the lottery.,11,8519,36,say quietly,,
1277,condition1,0.99,practice,practice_acceptability_good_1,Hanako said: Fiona didn't buy pineapple.,201,,0,NA,0,
1277,condition1,0.12,practice,practice_accpetability_bad_2,Hanako said: Prisha doesn't speak Korean.,204,,0,NA,0,
1277,condition1,0.99,0,say,Hanako said: Julian didn't say that Kevin lost the keys.,2,9454,1,say,,
1277,condition1,0.98,0,filler_good,Hanako said: Yash didn't insist that Julian ate the cupcake.,103,7171,2,insist,,
1277,condition1,0.4,0,filler_bad,Hanako said: Chandler didn't speculate that Frank and Lisa were in the office.,116,13273,3,speculate,,
1277,condition1,0.5,0,filler_bad,Hanako said: Jess didn't insist that the book about astronomy was on the shelf.,124,13142,4,insist,,
1277,condition1,0.99,0,filler_good,Hanako said: Charlie didn't imply that Charlie received a message.,110,9381,5,imply,,
1277,condition1,1,0,say_adv,Hanako said: Larry didn't say softly that Brandon broke his laptop.,4,12751,6,say softly,,
1277,condition1,0.47,1,filler_bad,Hanako said: Ronald didn't believe that the agent of the guitarist would show up.,120,12847,7,believe,,
1277,condition1,0.61,1,filler_bad,Hanako said: Jessie didn't reveal that Krisha's parents were moving to Texas.,123,14100,8,reveal,,
1277,condition1,0.97,1,filler_good,Hanako said: John didn't think that Zack broke the plates.,109,7136,9,think,,
1277,condition1,0.99,1,say,Hanako said: Tim didn't say that Mary met with the lawyer.,1,6808,10,say,,
1277,condition1,0.99,1,filler_good,Hanako said: Fatima didn't expect that Jennifer got a cat.,105,6728,11,expect,,
1277,condition1,0.62,1,say_adv,Hanako said: Ted didn't say wearily that Dan knew the professor.,5,8020,12,say wearily,,
1277,condition1,0.4,2,filler_bad,Hanako said: Emily didn't guess that Judith and Laura would order pizza.,118,6824,13,guess,,
1277,condition1,0.6,2,say_adv,Hanako said: Danny didn't say loudly that Hasan talked to the detectives.,8,5919,14,say loudly,,
1277,condition1,0.98,2,filler_good,Hanako said: Nancy didn't speculate that Doug would invite the mayor.,102,10182,15,speculate,,
1277,condition1,0.87,2,say,Hanako said: Emma didn't say that Charlie saw the robber.,6,11296,16,say,,
1277,condition1,0.98,2,filler_good,Hanako said: Amy didn't guess that Dana brought a gift.,108,7311,17,guess,,
1277,condition1,0.6,2,filler_bad,Hanako said: Sally didn't think that Eva's uncle should stay for dinner.,121,9429,18,think,,
1277,condition1,0.38,3,filler_bad,Hanako said: Kate didn't suggest that Karl and Nick cooked dinner.,117,7011,19,suggest,,
1277,condition1,0.21,3,filler_bad,Hanako said: Ben didn't hope that Liz and Jason drank the beer. ,115,14814,20,hope,,
1277,condition1,0.99,3,say,Hanako said: Howard didn't say that Yumi found the wallet.,7,4450,21,say,,
1277,condition1,0.97,3,filler_good,Hanako said: Jamal didn't reveal that Tony would visit George.,112,7309,22,reveal,,
1277,condition1,0.81,3,say_adv,Hanako said: Ashley didn't say ruefully that Alex bought a birthday cake.,3,7508,23,say ruefully,,
1277,condition1,0.98,3,filler_good,Hanako said: Donald didn't suggest that Karen wrote a book.,104,4619,24,suggest,,
1277,condition1,0.29,4,filler_bad,Hanako said: Grace didn't imply that Rob and Marc cut the bread. ,114,7004,25,imply,,
1277,condition1,0.97,4,say,Hanako said: Matthew didn't say that Ming forgot her phone. ,9,7842,26,say,,
1277,condition1,0.84,4,say_adv,Hanako said: Laura didn't say cheerfully that Penny won the lottery.,11,7827,27,say cheerfully,,
1277,condition1,0.97,4,filler_good,Hanako said: Bill didn't hope that George emailed the students.,101,14247,28,hope,,
1277,condition1,0.99,4,filler_good,Hanako said: Frankie didn't believe that Jacy rented the truck.,107,5934,29,believe,,
1277,condition1,0.56,4,filler_bad,Hanako said: Ollie didn't expect that the assistant to the director would give the presentation.,122,7085,30,expect,,
1277,condition1,0.91,5,filler_good,Hanako said: Tony didn't expect that Maddie would call her roommate.,106,6315,31,expect,,
1277,condition1,0.85,5,say_adv,Hanako said: Jake didn't say dryly that Omar had dinner with his manager.,10,3335,32,say dryly,,
1277,condition1,0.96,5,filler_good,Hanako said: Hannah didn't suspect that Todd went out with Betty.,111,4421,33,suspect,,
1277,condition1,0.5,5,filler_bad,Hanako said: Rui didn't suspect that Carol's brother signed the contract.,119,8142,34,suspect,,
1277,condition1,0.95,5,say,Hanako said: Helen didn't say that Tia brought her parents.,12,11548,35,say,,
1277,condition1,0.34,5,filler_bad,Hanako said: Igor didn't expect that Kevin and Paul drafted the letter.,113,7063,36,expect,,
1123,condition1,1,practice,practice_acceptability_good_1,Hanako said: Fiona didn't buy pineapple.,201,,0,NA,0,
1123,condition1,0.06,practice,practice_accpetability_bad_2,Hanako said: Prisha doesn't speak Korean.,204,,0,NA,0,
1123,condition1,0.99,0,filler_good,Hanako said: Jamal didn't guess that Karen wrote a book.,104,9453,1,guess,,
1123,condition1,0.08,0,filler_bad,Hanako said: Chandler didn't reveal that Liz and Jason drank the beer. ,115,5472,2,reveal,,
1123,condition1,0.08,0,filler_bad,Hanako said: Larry didn't think that Karl and Nick cooked dinner.,117,4256,3,think,,
1123,condition1,0.89,0,say,Hanako said: Jess didn't say that Tia brought her parents.,12,3532,4,say,,
1123,condition1,0.18,0,filler_good,Hanako said: Bill didn't expect that Zack broke the plates.,109,10132,5,expect,,
1123,condition1,0.23,0,say_adv,Hanako said: Jake didn't say wistfully that Kevin lost the keys.,2,3643,6,say wistfully,,
1123,condition1,0.21,1,say_adv,Hanako said: Emma didn't say softly that Alex bought a birthday cake.,3,2138,7,say softly,,
1123,condition1,0.85,1,filler_good,Hanako said: John didn't imply that Dana brought a gift.,108,2914,8,imply,,
1123,condition1,0.17,1,filler_bad,Hanako said: Jessie didn't suspect that Krisha's parents were moving to Texas.,123,4520,9,suspect,,
1123,condition1,0.87,1,say,Hanako said: Charlie didn't say that Yumi found the wallet.,7,5617,10,say,,
1123,condition1,0.13,1,filler_bad,Hanako said: Matthew didn't believe that Eva's uncle should stay for dinner.,121,3173,11,believe,,
1123,condition1,0.85,1,filler_good,Hanako said: Fatima didn't speculate that Todd went out with Betty.,111,2034,12,speculate,,
1123,condition1,0.85,2,filler_bad,Hanako said: Helen didn't imply that Frank and Lisa were in the office.,116,1530,13,imply,,
1123,condition1,0.85,2,say_adv,Hanako said: Ashley didn't say wearily that Mary met with the lawyer.,1,1513,14,say wearily,,
1123,condition1,0.86,2,filler_good,Hanako said: Howard didn't believe that Tony would visit George.,112,1543,15,believe,,
1123,condition1,0.16,2,filler_bad,Hanako said: Kate didn't expect that Carol's brother signed the contract.,119,1378,16,expect,,
1123,condition1,0.1,2,filler_good,Hanako said: Ted didn't suggest that Jacy rented the truck.,107,1551,17,suggest,,
1123,condition1,0.15,2,say,Hanako said: Grace didn't say that Hasan talked to the detectives.,8,2312,18,say,,
1123,condition1,0.88,3,filler_good,Hanako said: Frankie didn't expect that Doug would invite the mayor.,102,3913,19,expect,,
1123,condition1,0.13,3,filler_good,Hanako said: Hannah didn't suspect that George emailed the students.,101,1499,20,suspect,,
1123,condition1,0.2,3,filler_bad,Hanako said: Sally didn't expect that the book about astronomy was on the shelf.,124,1404,21,expect,,
1123,condition1,0.74,3,say,Hanako said: Nancy didn't say that Ming forgot her phone. ,9,2030,22,say,,
1123,condition1,0.13,3,filler_bad,Hanako said: Danny didn't speculate that the agent of the guitarist would show up.,120,2018,23,speculate,,
1123,condition1,0.76,3,say_adv,Hanako said: Ollie didn't say cheerfully that Charlie saw the robber.,6,1451,24,say cheerfully,,
1123,condition1,0.81,4,filler_bad,Hanako said: Yash didn't guess that Judith and Laura would order pizza.,118,2060,25,guess,,
1123,condition1,0.84,4,say_adv,Hanako said: Amy didn't say calmly that Dan knew the professor.,5,1460,26,say calmly,,
1123,condition1,0.86,4,filler_bad,Hanako said: Ben didn't hope that Rob and Marc cut the bread. ,114,1729,27,hope,,
1123,condition1,0.12,4,say,Hanako said: Rui didn't say that Omar had dinner with his manager.,10,1621,28,say,,
1123,condition1,0.18,4,filler_good,Hanako said: Julian didn't think that Maddie would call her roommate.,106,2805,29,think,,
1123,condition1,0.17,4,filler_good,Hanako said: Laura didn't insist that Charlie received a message.,110,1414,30,insist,,
1123,condition1,0.39,5,say,Hanako said: Ronald didn't say that Penny won the lottery.,11,1350,31,say,,
1123,condition1,0.78,5,filler_good,Hanako said: Donald didn't hope that Julian ate the cupcake.,103,2585,32,hope,,
1123,condition1,0.44,5,say_adv,Hanako said: Tony didn't say bluntly that Brandon broke his laptop.,4,1199,33,say bluntly,,
1123,condition1,0.39,5,filler_bad,Hanako said: Emily didn't suggest that the assistant to the director would give the presentation.,122,1710,34,suggest,,
1123,condition1,0.26,5,filler_good,Hanako said: Igor didn't reveal that Jennifer got a cat.,105,1559,35,reveal,,
1123,condition1,0.2,5,filler_bad,Hanako said: Tim didn't insist that Kevin and Paul drafted the letter.,113,1490,36,insist,,
1093,condition1,1,practice,practice_acceptability_good_1,Hanako said: Fiona didn't buy pineapple.,201,,0,NA,1,
1093,condition1,0,practice,practice_accpetability_bad_2,Hanako said: Prisha doesn't speak Korean.,204,,0,NA,0,
1093,condition1,1,0,say,Hanako said: Helen didn't say that Ming forgot her phone. ,9,15560,1,say,,
1093,condition1,1,0,filler_bad,Hanako said: Laura didn't suggest that Karl and Nick cooked dinner.,117,11503,2,suggest,,
1093,condition1,1,0,filler_bad,Hanako said: Bill didn't expect that Krisha's parents were moving to Texas.,123,6897,3,expect,,
1093,condition1,0.99,0,filler_good,Hanako said: Igor didn't insist that Zack broke the plates.,109,5832,4,insist,,
1093,condition1,1,0,say_adv,Hanako said: Jess didn't say bluntly that Yumi found the wallet.,7,3532,5,say bluntly,,
1093,condition1,0.88,0,filler_good,Hanako said: Danny didn't expect that Maddie would call her roommate.,106,4954,6,expect,,
1093,condition1,1,1,filler_good,Hanako said: Yash didn't suspect that Charlie received a message.,110,5585,7,suspect,,
1093,condition1,0.73,1,filler_good,Hanako said: Ashley didn't guess that Karen wrote a book.,104,6128,8,guess,,
1093,condition1,0.88,1,filler_bad,Hanako said: Ronald didn't guess that Frank and Lisa were in the office.,116,117071,9,guess,,
1093,condition1,0.02,1,say_adv,Hanako said: Emma didn't say cheerfully that Hasan talked to the detectives.,8,5345,10,say cheerfully,,
1093,condition1,0.21,1,filler_bad,Hanako said: Julian didn't reveal that the assistant to the director would give the presentation.,122,7826,11,reveal,,
1093,condition1,0.2,1,say,Hanako said: Nancy didn't say that Brandon broke his laptop.,4,9814,12,say,,
1093,condition1,0.99,2,filler_good,Hanako said: Emily didn't imply that Todd went out with Betty.,111,5049,13,imply,,
1093,condition1,0.94,2,filler_bad,Hanako said: Ben didn't speculate that Kevin and Paul drafted the letter.,113,6146,14,speculate,,
1093,condition1,0.92,2,say,Hanako said: John didn't say that Alex bought a birthday cake.,3,70551,15,say,,
1093,condition1,0.8,2,say_adv,Hanako said: Howard didn't say calmly that Omar had dinner with his manager.,10,10134,16,say calmly,,
1093,condition1,0.3,2,filler_good,Hanako said: Jessie didn't believe that Julian ate the cupcake.,103,1991,17,believe,,
1093,condition1,0.74,2,filler_bad,Hanako said: Sally didn't imply that Carol's brother signed the contract.,119,1932,18,imply,,
1093,condition1,0.82,3,say_adv,Hanako said: Jamal didn't say wearily that Penny won the lottery.,11,2361,19,say wearily,,
1093,condition1,0.79,3,say,Hanako said: Tony didn't say that Charlie saw the robber.,6,4063,20,say,,
1093,condition1,0.8,3,filler_good,Hanako said: Fatima didn't suggest that Jennifer got a cat.,105,1581,21,suggest,,
1093,condition1,0.23,3,filler_bad,Hanako said: Jake didn't suspect that the agent of the guitarist would show up.,120,1705,22,suspect,,
1093,condition1,0.78,3,filler_good,Hanako said: Rui didn't expect that Tony would visit George.,112,1781,23,expect,,
