workerid,proliferate.condition,acceptability_rating,block_id,condition,context,item_id,rt,trial_num,verb,wrong_attempts,error
1097,condition1,1,practice,practice_acceptability_good_1,Hanako said: Fiona didn't buy pineapple.,201,,0,NA,0,
1097,condition1,0.02,practice,practice_accpetability_bad_2,Hanako said: Prisha doesn't speak Korean.,204,,0,NA,0,
1097,condition1,0.07,0,filler_bad,Hanako said: Ronald didn't insist that Eva's uncle should stay for dinner.,121,12163,1,insist,,
1097,condition1,0.3,0,filler_good,Hanako said: Donald didn't expect that George emailed the students.,101,10545,2,expect,,
1097,condition1,0.45,0,say_adv,Hanako said: Tim didn't say wistfully that Yumi found the wallet.,7,15707,3,say wistfully,,
1097,condition1,0.78,0,say,Hanako said: Ben didn't say that Mary met with the lawyer.,1,14989,4,say,,
1097,condition1,1,0,filler_good,Hanako said: Chandler didn't reveal that Zack broke the plates.,109,7633,5,reveal,,
1097,condition1,0.13,0,filler_bad,Hanako said: Amy didn't suggest that the book about astronomy was on the shelf.,124,13911,6,suggest,,
1097,condition1,0.65,1,say_adv,Hanako said: Jessie didn't say loudly that Penny won the lottery.,11,12575,7,say loudly,,
1097,condition1,0.01,1,filler_bad,Hanako said: Matthew didn't imply that Karl and Nick cooked dinner.,117,7859,8,imply,,
1097,condition1,0.22,1,filler_bad,Hanako said: Howard didn't reveal that Krisha's parents were moving to Texas.,123,10648,9,reveal,,
1097,condition1,1,1,filler_good,Hanako said: Helen didn't speculate that Jennifer got a cat.,105,12046,10,speculate,,
1097,condition1,0.93,1,filler_good,Hanako said: Ashley didn't insist that Doug would invite the mayor.,102,14073,11,insist,,
1097,condition1,0.51,1,say,Hanako said: Julian didn't say that Charlie saw the robber.,6,11628,12,say,,
1097,condition1,0.3,2,filler_good,Hanako said: Fatima didn't suggest that Maddie would call her roommate.,106,10146,13,suggest,,
1097,condition1,0.69,2,say_adv,Hanako said: Ollie didn't say ruefully that Omar had dinner with his manager.,10,27059,14,say ruefully,,
1097,condition1,0.97,2,filler_good,Hanako said: Bill didn't suspect that Karen wrote a book.,104,7006,15,suspect,,
1097,condition1,0.42,2,say,Hanako said: Larry didn't say that Tia brought her parents.,12,14625,16,say,,
1097,condition1,0.02,2,filler_bad,Hanako said: Laura didn't expect that Rob and Marc cut the bread. ,114,7096,17,expect,,
1097,condition1,0,2,filler_bad,Hanako said: Ted didn't hope that Frank and Lisa were in the office.,116,7873,18,hope,,
1097,condition1,0.93,3,filler_good,Hanako said: Frankie didn't think that Charlie received a message.,110,6578,19,think,,
1097,condition1,0.88,3,say_adv,Hanako said: John didn't say quietly that Ming forgot her phone. ,9,9651,20,say quietly,,
1097,condition1,0.84,3,filler_good,Hanako said: Danny didn't imply that Dana brought a gift.,108,7326,21,imply,,
1097,condition1,0,3,filler_bad,Hanako said: Rui didn't suspect that Judith and Laura would order pizza.,118,13336,22,suspect,,
1097,condition1,0.98,3,say,Hanako said: Charlie didn't say that Dan knew the professor.,5,5981,23,say,,
1097,condition1,0.01,3,filler_bad,Hanako said: Emily didn't think that Liz and Jason drank the beer. ,115,5756,24,think,,
1097,condition1,0.94,4,say,Hanako said: Yash didn't say that Brandon broke his laptop.,4,10180,25,say,,
1097,condition1,0.74,4,say_adv,Hanako said: Hannah didn't say bluntly that Kevin lost the keys.,2,9096,26,say bluntly,,
1097,condition1,0.32,4,filler_good,Hanako said: Jamal didn't hope that Julian ate the cupcake.,103,9169,27,hope,,
1097,condition1,0.02,4,filler_bad,Hanako said: Grace didn't speculate that the assistant to the director would give the presentation.,122,9408,28,speculate,,
1097,condition1,0,4,filler_bad,Hanako said: Tony didn't expect that the agent of the guitarist would show up.,120,9316,29,expect,,
1097,condition1,0.63,4,filler_good,Hanako said: Igor didn't believe that Jacy rented the truck.,107,5532,30,believe,,
1097,condition1,0.93,5,say,Hanako said: Jake didn't say that Hasan talked to the detectives.,8,6269,31,say,,
1097,condition1,0.01,5,filler_bad,Hanako said: Emma didn't guess that Kevin and Paul drafted the letter.,113,6587,32,guess,,
1097,condition1,0.75,5,say_adv,Hanako said: Nancy didn't say calmly that Alex bought a birthday cake.,3,7881,33,say calmly,,
1097,condition1,0.75,5,filler_good,Hanako said: Kate didn't expect that Tony would visit George.,112,6893,34,expect,,
1097,condition1,0.77,5,filler_good,Hanako said: Sally didn't guess that Todd went out with Betty.,111,6419,35,guess,,
1097,condition1,0.28,5,filler_bad,Hanako said: Jess didn't believe that Carol's brother signed the contract.,119,8209,36,believe,,
1061,condition1,0.7,practice,practice_acceptability_good_1,Hanako said: Fiona didn't buy pineapple.,201,,0,NA,0,
1061,condition1,0,practice,practice_accpetability_bad_2,Hanako said: Prisha doesn't speak Korean.,204,,0,NA,0,
1061,condition1,0.61,0,filler_good,Hanako said: Igor didn't suggest that Todd went out with Betty.,111,19918,1,suggest,,
1061,condition1,0.23,0,filler_good,Hanako said: Bill didn't believe that Charlie received a message.,110,12355,2,believe,,
1061,condition1,0.71,0,say,Hanako said: Kate didn't say that Dan knew the professor.,5,9354,3,say,,
1061,condition1,0.08,0,filler_bad,Hanako said: Ben didn't imply that Eva's uncle should stay for dinner.,121,41735,4,imply,,
1061,condition1,0.06,0,filler_bad,Hanako said: Jess didn't expect that Karl and Nick cooked dinner.,117,8312,5,expect,,
1061,condition1,0.02,0,say_adv,Hanako said: John didn't say quietly that Hasan talked to the detectives.,8,9529,6,say quietly,,
1061,condition1,0.3,1,filler_good,Hanako said: Jamal didn't expect that George emailed the students.,101,12934,7,expect,,
1061,condition1,0.24,1,say_adv,Hanako said: Laura didn't say wistfully that Charlie saw the robber.,6,12016,8,say wistfully,,
1061,condition1,0.24,1,filler_good,Hanako said: Howard didn't think that Tony would visit George.,112,6368,9,think,,
1061,condition1,0.7,1,say,Hanako said: Julian didn't say that Kevin lost the keys.,2,33256,10,say,,
1061,condition1,0.01,1,filler_bad,Hanako said: Matthew didn't speculate that Kevin and Paul drafted the letter.,113,6265,11,speculate,,
1061,condition1,0.18,1,filler_bad,Hanako said: Ashley didn't suggest that the book about astronomy was on the shelf.,124,20546,12,suggest,,
1061,condition1,0.01,2,filler_bad,Hanako said: Tony didn't reveal that the agent of the guitarist would show up.,120,8825,13,reveal,,
1061,condition1,0.37,2,say_adv,Hanako said: Jake didn't say wearily that Yumi found the wallet.,7,7431,14,say wearily,,
1061,condition1,0.59,2,say,Hanako said: Donald didn't say that Omar had dinner with his manager.,10,5178,15,say,,
1061,condition1,0.69,2,filler_good,Hanako said: Sally didn't insist that Doug would invite the mayor.,102,10715,16,insist,,
1061,condition1,0.73,2,filler_good,Hanako said: Amy didn't speculate that Jennifer got a cat.,105,3754,17,speculate,,
1061,condition1,0,2,filler_bad,Hanako said: Frankie didn't expect that Liz and Jason drank the beer. ,115,7461,18,expect,,
1061,condition1,0.19,3,filler_bad,Hanako said: Ollie didn't think that the assistant to the director would give the presentation.,122,8491,19,think,,
1061,condition1,0.47,3,say,Hanako said: Charlie didn't say that Brandon broke his laptop.,4,53812,20,say,,
1061,condition1,0.6,3,filler_good,Hanako said: Grace didn't guess that Zack broke the plates.,109,7144,21,guess,,
1061,condition1,0,3,filler_bad,Hanako said: Rui didn't hope that Rob and Marc cut the bread. ,114,6997,22,hope,,
1061,condition1,0.27,3,say_adv,Hanako said: Jessie didn't say bluntly that Ming forgot her phone. ,9,7407,23,say bluntly,,
1061,condition1,0.66,3,filler_good,Hanako said: Danny didn't expect that Julian ate the cupcake.,103,4482,24,expect,,
1061,condition1,0.4,4,filler_bad,Hanako said: Larry didn't guess that Carol's brother signed the contract.,119,7356,25,guess,,
1061,condition1,0.56,4,say_adv,Hanako said: Chandler didn't say cheerfully that Tia brought her parents.,12,5794,26,say cheerfully,,
1061,condition1,0.68,4,filler_good,Hanako said: Emily didn't suspect that Jacy rented the truck.,107,5640,27,suspect,,
1061,condition1,0.66,4,filler_good,Hanako said: Ted didn't imply that Karen wrote a book.,104,3445,28,imply,,
1061,condition1,0.13,4,filler_bad,Hanako said: Ronald didn't insist that Judith and Laura would order pizza.,118,4560,29,insist,,
1061,condition1,0.63,4,say,Hanako said: Fatima didn't say that Penny won the lottery.,11,4354,30,say,,
1061,condition1,0.02,5,filler_bad,Hanako said: Yash didn't believe that Frank and Lisa were in the office.,116,7383,31,believe,,
1061,condition1,0.55,5,say,Hanako said: Tim didn't say that Mary met with the lawyer.,1,14623,32,say,,
1061,condition1,0.58,5,say_adv,Hanako said: Hannah didn't say calmly that Alex bought a birthday cake.,3,13565,33,say calmly,,
1061,condition1,0.24,5,filler_bad,Hanako said: Nancy didn't suspect that Krisha's parents were moving to Texas.,123,5189,34,suspect,,
1061,condition1,1,5,filler_good,Hanako said: Emma didn't reveal that Dana brought a gift.,108,15635,35,reveal,,
1061,condition1,0.82,5,filler_good,Hanako said: Helen didn't hope that Maddie would call her roommate.,106,3599,36,hope,,
1087,condition1,0.99,practice,practice_acceptability_good_1,Hanako said: Fiona didn't buy pineapple.,201,,0,NA,0,
1087,condition1,0,practice,practice_accpetability_bad_2,Hanako said: Prisha doesn't speak Korean.,204,,0,NA,0,
1087,condition1,0.9,0,say,Hanako said: Jamal didn't say that Dan knew the professor.,5,12533,1,say,,
1087,condition1,0.12,0,filler_bad,Hanako said: Larry didn't expect that Krisha's parents were moving to Texas.,123,10450,2,expect,,
1087,condition1,0.17,0,say_adv,Hanako said: John didn't say softly that Tia brought her parents.,12,11450,3,say softly,,
1087,condition1,1,0,filler_good,Hanako said: Jessie didn't guess that Dana brought a gift.,108,7051,4,guess,,
1087,condition1,1,0,filler_good,Hanako said: Ronald didn't speculate that Jennifer got a cat.,105,6215,5,speculate,,
1087,condition1,0,0,filler_bad,Hanako said: Frankie didn't believe that Frank and Lisa were in the office.,116,7968,6,believe,,
1087,condition1,0.99,1,filler_good,Hanako said: Matthew didn't expect that Jacy rented the truck.,107,7852,7,expect,,
1087,condition1,0.99,1,filler_good,Hanako said: Rui didn't imply that Zack broke the plates.,109,6097,8,imply,,
1087,condition1,0.86,1,say,Hanako said: Ashley didn't say that Penny won the lottery.,11,9850,9,say,,
1087,condition1,0.08,1,filler_bad,Hanako said: Jess didn't guess that the assistant to the director would give the presentation.,122,12733,10,guess,,
1087,condition1,0,1,filler_bad,Hanako said: Sally didn't reveal that Kevin and Paul drafted the letter.,113,8218,11,reveal,,
1087,condition1,0.65,1,say_adv,Hanako said: Laura didn't say calmly that Alex bought a birthday cake.,3,12482,12,say calmly,,
1087,condition1,1,2,filler_good,Hanako said: Donald didn't hope that Julian ate the cupcake.,103,5034,13,hope,,
1087,condition1,0.99,2,filler_good,Hanako said: Emily didn't reveal that Doug would invite the mayor.,102,5318,14,reveal,,
1087,condition1,1,2,say_adv,Hanako said: Igor didn't say ruefully that Brandon broke his laptop.,4,9130,15,say ruefully,,
1087,condition1,0,2,filler_bad,Hanako said: Ollie didn't insist that Liz and Jason drank the beer. ,115,6018,16,insist,,
1087,condition1,0,2,filler_bad,Hanako said: Emma didn't think that Judith and Laura would order pizza.,118,10566,17,think,,
1087,condition1,1,2,say,Hanako said: Ted didn't say that Mary met with the lawyer.,1,6534,18,say,,
1087,condition1,0,3,filler_bad,Hanako said: Tony didn't speculate that the book about astronomy was on the shelf.,124,7799,19,speculate,,
1087,condition1,0.49,3,say_adv,Hanako said: Charlie didn't say cheerfully that Charlie saw the robber.,6,10350,20,say cheerfully,,
1087,condition1,1,3,filler_good,Hanako said: Julian didn't suspect that Tony would visit George.,112,6749,21,suspect,,
1087,condition1,1,3,filler_good,Hanako said: Nancy didn't think that Maddie would call her roommate.,106,6183,22,think,,
1087,condition1,0.4,3,filler_bad,Hanako said: Amy didn't suggest that Eva's uncle should stay for dinner.,121,7753,23,suggest,,
1087,condition1,1,3,say,Hanako said: Tim didn't say that Kevin lost the keys.,2,6167,24,say,,
1087,condition1,0.16,4,filler_bad,Hanako said: Ben didn't imply that Carol's brother signed the contract.,119,5530,25,imply,,
1087,condition1,1,4,say,Hanako said: Jake didn't say that Ming forgot her phone. ,9,5284,26,say,,
1087,condition1,0.56,4,say_adv,Hanako said: Howard didn't say quietly that Omar had dinner with his manager.,10,9301,27,say quietly,,
1087,condition1,1,4,filler_good,Hanako said: Helen didn't insist that Charlie received a message.,110,4418,28,insist,,
1087,condition1,1,4,filler_good,Hanako said: Danny didn't suggest that George emailed the students.,101,6231,29,suggest,,
1087,condition1,0,4,filler_bad,Hanako said: Yash didn't expect that Rob and Marc cut the bread. ,114,6549,30,expect,,
1087,condition1,0.17,5,say_adv,Hanako said: Hannah didn't say sternly that Hasan talked to the detectives.,8,7233,31,say sternly,,
1087,condition1,1,5,say,Hanako said: Kate didn't say that Yumi found the wallet.,7,5584,32,say,,
1087,condition1,0.15,5,filler_bad,Hanako said: Fatima didn't hope that the agent of the guitarist would show up.,120,6550,33,hope,,
1087,condition1,0.49,5,filler_good,Hanako said: Bill didn't expect that Karen wrote a book.,104,5666,34,expect,,
1087,condition1,0.85,5,filler_good,Hanako said: Grace didn't believe that Todd went out with Betty.,111,8351,35,believe,,
1087,condition1,0,5,filler_bad,Hanako said: Chandler didn't suspect that Karl and Nick cooked dinner.,117,4798,36,suspect,,
1091,condition1,1,practice,practice_acceptability_good_1,Hanako said: Fiona didn't buy pineapple.,201,,0,NA,0,
1091,condition1,0,practice,practice_accpetability_bad_2,Hanako said: Prisha doesn't speak Korean.,204,,0,NA,1,
1091,condition1,1,0,filler_good,Hanako said: Helen didn't suggest that Maddie would call her roommate.,106,9366,1,suggest,,
1091,condition1,0,0,say_adv,Hanako said: Ronald didn't say softly that Charlie saw the robber.,6,8983,2,say softly,,
1091,condition1,1,0,say,Hanako said: Jamal didn't say that Mary met with the lawyer.,1,11542,3,say,,
1091,condition1,0,0,filler_bad,Hanako said: Danny didn't suggest that Karl and Nick cooked dinner.,117,12741,4,suggest,,
1091,condition1,1,0,filler_good,Hanako said: Jessie didn't suspect that Charlie received a message.,110,7984,5,suspect,,
1091,condition1,0.03,0,filler_bad,Hanako said: Bill didn't believe that the assistant to the director would give the presentation.,122,14815,6,believe,,
1091,condition1,0.32,1,say_adv,Hanako said: Matthew didn't say dryly that Tia brought her parents.,12,11528,7,say dryly,,
1091,condition1,0,1,filler_bad,Hanako said: Amy didn't reveal that Judith and Laura would order pizza.,118,9391,8,reveal,,
1091,condition1,1,1,filler_good,Hanako said: Julian didn't insist that Karen wrote a book.,104,4259,9,insist,,
1091,condition1,1,1,say,Hanako said: Ben didn't say that Dan knew the professor.,5,16640,10,say,,
1091,condition1,0.32,1,filler_good,Hanako said: John didn't expect that Jennifer got a cat.,105,10151,11,expect,,
1091,condition1,0,1,filler_bad,Hanako said: Jake didn't expect that Eva's uncle should stay for dinner.,121,9138,12,expect,,
1091,condition1,1,2,say,Hanako said: Yash didn't say that Yumi found the wallet.,7,6488,13,say,,
1091,condition1,0.62,2,filler_good,Hanako said: Grace didn't think that George emailed the students.,101,7879,14,think,,
1091,condition1,1,2,filler_good,Hanako said: Nancy didn't reveal that Zack broke the plates.,109,5095,15,reveal,,
1091,condition1,0.67,2,filler_bad,Hanako said: Emma didn't hope that the agent of the guitarist would show up.,120,7762,16,hope,,
1091,condition1,0.66,2,say_adv,Hanako said: Igor didn't say wearily that Kevin lost the keys.,2,11770,17,say wearily,,
1091,condition1,0,2,filler_bad,Hanako said: Howard didn't guess that Rob and Marc cut the bread. ,114,6450,18,guess,,
1091,condition1,0,3,filler_bad,Hanako said: Sally didn't speculate that Carol's brother signed the contract.,119,11452,19,speculate,,
1091,condition1,0.67,3,filler_good,Hanako said: Hannah didn't guess that Doug would invite the mayor.,102,9559,20,guess,,
1091,condition1,0,3,filler_bad,Hanako said: Frankie didn't think that Frank and Lisa were in the office.,116,9140,21,think,,
1091,condition1,0.33,3,say_adv,Hanako said: Chandler didn't say calmly that Alex bought a birthday cake.,3,8913,22,say calmly,,
1091,condition1,1,3,say,Hanako said: Tony didn't say that Hasan talked to the detectives.,8,9076,23,say,,
1091,condition1,0.64,3,filler_good,Hanako said: Ollie didn't imply that Todd went out with Betty.,111,10894,24,imply,,
1091,condition1,0,4,filler_bad,Hanako said: Laura didn't expect that Kevin and Paul drafted the letter.,113,23307,25,expect,,
1091,condition1,0.31,4,filler_good,Hanako said: Emily didn't hope that Julian ate the cupcake.,103,8876,26,hope,,
1091,condition1,0,4,filler_bad,Hanako said: Tim didn't imply that the book about astronomy was on the shelf.,124,6492,27,imply,,
1091,condition1,0.61,4,filler_good,Hanako said: Charlie didn't speculate that Dana brought a gift.,108,6685,28,speculate,,
1091,condition1,0.28,4,say,Hanako said: Donald didn't say that Ming forgot her phone. ,9,9826,29,say,,
1091,condition1,0.53,4,say_adv,Hanako said: Ted didn't say gently that Brandon broke his laptop.,4,14006,30,say gently,,
1091,condition1,1,5,filler_good,Hanako said: Fatima didn't expect that Tony would visit George.,112,5209,31,expect,,
1091,condition1,0,5,filler_bad,Hanako said: Ashley didn't insist that Krisha's parents were moving to Texas.,123,8141,32,insist,,
1091,condition1,0.35,5,filler_good,Hanako said: Kate didn't believe that Jacy rented the truck.,107,8291,33,believe,,
1091,condition1,1,5,say,Hanako said: Jess didn't say that Omar had dinner with his manager.,10,33858,34,say,,
1091,condition1,0,5,filler_bad,Hanako said: Larry didn't suspect that Liz and Jason drank the beer. ,115,5323,35,suspect,,
1091,condition1,0.29,5,say_adv,Hanako said: Rui didn't say quietly that Penny won the lottery.,11,8519,36,say quietly,,
1093,condition1,1,practice,practice_acceptability_good_1,Hanako said: Fiona didn't buy pineapple.,201,,0,NA,1,
1093,condition1,0,practice,practice_accpetability_bad_2,Hanako said: Prisha doesn't speak Korean.,204,,0,NA,0,
1093,condition1,1,0,say,Hanako said: Helen didn't say that Ming forgot her phone. ,9,15560,1,say,,
1093,condition1,1,0,filler_bad,Hanako said: Laura didn't suggest that Karl and Nick cooked dinner.,117,11503,2,suggest,,
1093,condition1,1,0,filler_bad,Hanako said: Bill didn't expect that Krisha's parents were moving to Texas.,123,6897,3,expect,,
1093,condition1,0.99,0,filler_good,Hanako said: Igor didn't insist that Zack broke the plates.,109,5832,4,insist,,
1093,condition1,1,0,say_adv,Hanako said: Jess didn't say bluntly that Yumi found the wallet.,7,3532,5,say bluntly,,
1093,condition1,0.88,0,filler_good,Hanako said: Danny didn't expect that Maddie would call her roommate.,106,4954,6,expect,,
1093,condition1,1,1,filler_good,Hanako said: Yash didn't suspect that Charlie received a message.,110,5585,7,suspect,,
1093,condition1,0.73,1,filler_good,Hanako said: Ashley didn't guess that Karen wrote a book.,104,6128,8,guess,,
1093,condition1,0.88,1,filler_bad,Hanako said: Ronald didn't guess that Frank and Lisa were in the office.,116,117071,9,guess,,
1093,condition1,0.02,1,say_adv,Hanako said: Emma didn't say cheerfully that Hasan talked to the detectives.,8,5345,10,say cheerfully,,
1093,condition1,0.21,1,filler_bad,Hanako said: Julian didn't reveal that the assistant to the director would give the presentation.,122,7826,11,reveal,,
1093,condition1,0.2,1,say,Hanako said: Nancy didn't say that Brandon broke his laptop.,4,9814,12,say,,
1093,condition1,0.99,2,filler_good,Hanako said: Emily didn't imply that Todd went out with Betty.,111,5049,13,imply,,
1093,condition1,0.94,2,filler_bad,Hanako said: Ben didn't speculate that Kevin and Paul drafted the letter.,113,6146,14,speculate,,
1093,condition1,0.92,2,say,Hanako said: John didn't say that Alex bought a birthday cake.,3,70551,15,say,,
1093,condition1,0.8,2,say_adv,Hanako said: Howard didn't say calmly that Omar had dinner with his manager.,10,10134,16,say calmly,,
1093,condition1,0.3,2,filler_good,Hanako said: Jessie didn't believe that Julian ate the cupcake.,103,1991,17,believe,,
1093,condition1,0.74,2,filler_bad,Hanako said: Sally didn't imply that Carol's brother signed the contract.,119,1932,18,imply,,
1093,condition1,0.82,3,say_adv,Hanako said: Jamal didn't say wearily that Penny won the lottery.,11,2361,19,say wearily,,
1093,condition1,0.79,3,say,Hanako said: Tony didn't say that Charlie saw the robber.,6,4063,20,say,,
1093,condition1,0.8,3,filler_good,Hanako said: Fatima didn't suggest that Jennifer got a cat.,105,1581,21,suggest,,
1093,condition1,0.23,3,filler_bad,Hanako said: Jake didn't suspect that the agent of the guitarist would show up.,120,1705,22,suspect,,
1093,condition1,0.78,3,filler_good,Hanako said: Rui didn't expect that Tony would visit George.,112,1781,23,expect,,
1093,condition1,0.73,3,filler_bad,Hanako said: Grace didn't think that Judith and Laura would order pizza.,118,2443,24,think,,
1093,condition1,0.89,4,say,Hanako said: Amy didn't say that Kevin lost the keys.,2,2501,25,say,,
1093,condition1,0.86,4,filler_good,Hanako said: Tim didn't speculate that George emailed the students.,101,2000,26,speculate,,
1093,condition1,1,4,say_adv,Hanako said: Hannah didn't say quietly that Dan knew the professor.,5,1733,27,say quietly,,
1093,condition1,0.99,4,filler_good,Hanako said: Ollie didn't think that Jacy rented the truck.,107,6656,28,think,,
1093,condition1,0.85,4,filler_bad,Hanako said: Chandler didn't hope that Rob and Marc cut the bread. ,114,1610,29,hope,,
1093,condition1,0.26,4,filler_bad,Hanako said: Larry didn't expect that the book about astronomy was on the shelf.,124,2627,30,expect,,
1093,condition1,0.88,5,say_adv,Hanako said: Ted didn't say ruefully that Mary met with the lawyer.,1,2537,31,say ruefully,,
1093,condition1,0.93,5,filler_bad,Hanako said: Frankie didn't insist that Eva's uncle should stay for dinner.,121,2740,32,insist,,
1093,condition1,0.89,5,filler_good,Hanako said: Donald didn't hope that Dana brought a gift.,108,2111,33,hope,,
1093,condition1,0.91,5,filler_bad,Hanako said: Kate didn't believe that Liz and Jason drank the beer. ,115,4146,34,believe,,
1093,condition1,0.27,5,filler_good,Hanako said: Matthew didn't reveal that Doug would invite the mayor.,102,1850,35,reveal,,
1093,condition1,0.18,5,say,Hanako said: Charlie didn't say that Tia brought her parents.,12,8494,36,say,,
1088,condition1,1,practice,practice_acceptability_good_1,Hanako said: Fiona didn't buy pineapple.,201,,0,NA,0,
1088,condition1,0.04,practice,practice_accpetability_bad_2,Hanako said: Prisha doesn't speak Korean.,204,,0,NA,0,
1088,condition1,1,0,filler_bad,Hanako said: Ronald didn't guess that Karl and Nick cooked dinner.,117,5950,1,guess,,
1088,condition1,0.16,0,say,Hanako said: Julian didn't say that Charlie saw the robber.,6,8583,2,say,,
1088,condition1,0.06,0,say_adv,Hanako said: Laura didn't say quietly that Omar had dinner with his manager.,10,14035,3,say quietly,,
1088,condition1,0.04,0,filler_good,Hanako said: Jamal didn't insist that Tony would visit George.,112,4816,4,insist,,
1088,condition1,0.05,0,filler_good,Hanako said: Jake didn't suspect that Charlie received a message.,110,7214,5,suspect,,
1088,condition1,0,0,filler_bad,Hanako said: Emma didn't think that the agent of the guitarist would show up.,120,6651,6,think,,
1088,condition1,0.07,1,filler_good,Hanako said: Nancy didn't think that George emailed the students.,101,5450,7,think,,
1088,condition1,0.09,1,filler_good,Hanako said: Yash didn't imply that Karen wrote a book.,104,5933,8,imply,,
1088,condition1,0.05,1,say,Hanako said: Ted didn't say that Kevin lost the keys.,2,4784,9,say,,
1088,condition1,0.04,1,say_adv,Hanako said: Ben didn't say loudly that Ming forgot her phone. ,9,4083,10,say loudly,,
1088,condition1,0,1,filler_bad,Hanako said: Donald didn't expect that Kevin and Paul drafted the letter.,113,4650,11,expect,,
1088,condition1,0,1,filler_bad,Hanako said: Ollie didn't reveal that the assistant to the director would give the presentation.,122,19217,12,reveal,,
1088,condition1,0,2,filler_bad,Hanako said: Kate didn't suggest that Eva's uncle should stay for dinner.,121,4449,13,suggest,,
1088,condition1,0,2,filler_bad,Hanako said: John didn't hope that Carol's brother signed the contract.,119,3183,14,hope,,
1088,condition1,0.06,2,filler_good,Hanako said: Rui didn't speculate that Jacy rented the truck.,107,3433,15,speculate,,
1088,condition1,0,2,say_adv,Hanako said: Ashley didn't say cheerfully that Mary met with the lawyer.,1,5367,16,say cheerfully,,
1088,condition1,0.03,2,filler_good,Hanako said: Chandler didn't hope that Maddie would call her roommate.,106,3917,17,hope,,
1088,condition1,0.04,2,say,Hanako said: Charlie didn't say that Dan knew the professor.,5,3266,18,say,,
1088,condition1,0.02,3,filler_bad,Hanako said: Grace didn't imply that Frank and Lisa were in the office.,116,2833,19,imply,,
1088,condition1,0.02,3,say,Hanako said: Hannah didn't say that Penny won the lottery.,11,3066,20,say,,
1088,condition1,0.05,3,filler_good,Hanako said: Frankie didn't expect that Jennifer got a cat.,105,3416,21,expect,,
1088,condition1,0.01,3,say_adv,Hanako said: Amy didn't say gently that Yumi found the wallet.,7,2719,22,say gently,,
1088,condition1,0.03,3,filler_good,Hanako said: Emily didn't believe that Julian ate the cupcake.,103,5899,23,believe,,
1088,condition1,0.01,3,filler_bad,Hanako said: Danny didn't insist that Liz and Jason drank the beer. ,115,2299,24,insist,,
1088,condition1,0.04,4,filler_bad,Hanako said: Howard didn't believe that Rob and Marc cut the bread. ,114,3150,25,believe,,
1088,condition1,0.02,4,filler_good,Hanako said: Bill didn't guess that Todd went out with Betty.,111,4000,26,guess,,
1088,condition1,0,4,say_adv,Hanako said: Igor didn't say softly that Brandon broke his laptop.,4,5199,27,say softly,,
1088,condition1,0.02,4,filler_good,Hanako said: Jessie didn't expect that Dana brought a gift.,108,2800,28,expect,,
1088,condition1,0.04,4,say,Hanako said: Tim didn't say that Alex bought a birthday cake.,3,4817,29,say,,
1088,condition1,0.02,4,filler_bad,Hanako said: Sally didn't expect that the book about astronomy was on the shelf.,124,6567,30,expect,,
1088,condition1,0.03,5,filler_bad,Hanako said: Matthew didn't suspect that Krisha's parents were moving to Texas.,123,3816,31,suspect,,
1088,condition1,0,5,say_adv,Hanako said: Tony didn't say bluntly that Tia brought her parents.,12,2700,32,say bluntly,,
1088,condition1,0,5,say,Hanako said: Jess didn't say that Hasan talked to the detectives.,8,2533,33,say,,
1088,condition1,0,5,filler_bad,Hanako said: Larry didn't speculate that Judith and Laura would order pizza.,118,2650,34,speculate,,
1088,condition1,0.56,5,filler_good,Hanako said: Helen didn't reveal that Zack broke the plates.,109,13334,35,reveal,,
1088,condition1,0,5,filler_good,Hanako said: Fatima didn't suggest that Doug would invite the mayor.,102,3033,36,suggest,,
1082,condition1,1,practice,practice_acceptability_good_1,Hanako said: Fiona didn't buy pineapple.,201,,0,NA,0,
1082,condition1,0,practice,practice_accpetability_bad_2,Hanako said: Prisha doesn't speak Korean.,204,,0,NA,0,
1082,condition1,0.42,0,say_adv,Hanako said: Ronald didn't say quietly that Yumi found the wallet.,7,9255,1,say quietly,,
1082,condition1,0,0,filler_bad,Hanako said: Ashley didn't hope that Frank and Lisa were in the office.,116,4705,2,hope,,
1082,condition1,1,0,say,Hanako said: Hannah didn't say that Brandon broke his laptop.,4,3906,3,say,,
1082,condition1,0,0,filler_bad,Hanako said: Howard didn't expect that the assistant to the director would give the presentation.,122,4301,4,expect,,
1082,condition1,1,0,filler_good,Hanako said: Rui didn't imply that Maddie would call her roommate.,106,4723,5,imply,,
1082,condition1,1,0,filler_good,Hanako said: Fatima didn't speculate that Zack broke the plates.,109,4035,6,speculate,,
1082,condition1,1,1,say,Hanako said: Igor didn't say that Tia brought her parents.,12,6882,7,say,,
1082,condition1,0,1,filler_bad,Hanako said: Chandler didn't guess that Judith and Laura would order pizza.,118,4035,8,guess,,
1082,condition1,0.09,1,filler_bad,Hanako said: Tim didn't believe that Carol's brother signed the contract.,119,6202,9,believe,,
1082,condition1,1,1,filler_good,Hanako said: Jessie didn't insist that Tony would visit George.,112,2734,10,insist,,
1082,condition1,0.4,1,say_adv,Hanako said: Matthew didn't say dryly that Ming forgot her phone. ,9,5254,11,say dryly,,
1082,condition1,0.77,1,filler_good,Hanako said: Ollie didn't suspect that Dana brought a gift.,108,8578,12,suspect,,
1082,condition1,0,2,filler_bad,Hanako said: Danny didn't speculate that Liz and Jason drank the beer. ,115,2837,13,speculate,,
1082,condition1,1,2,filler_good,Hanako said: Jess didn't expect that George emailed the students.,101,4697,14,expect,,
1082,condition1,1,2,filler_good,Hanako said: Nancy didn't reveal that Jacy rented the truck.,107,2910,15,reveal,,
1082,condition1,0.39,2,say_adv,Hanako said: Amy didn't say bluntly that Dan knew the professor.,5,3663,16,say bluntly,,
1082,condition1,0.08,2,filler_bad,Hanako said: Kate didn't imply that the agent of the guitarist would show up.,120,6428,17,imply,,
1082,condition1,0.95,2,say,Hanako said: John didn't say that Mary met with the lawyer.,1,6785,18,say,,
1082,condition1,0.91,3,filler_good,Hanako said: Donald didn't hope that Julian ate the cupcake.,103,6693,19,hope,,
1082,condition1,0,3,filler_bad,Hanako said: Ben didn't expect that Kevin and Paul drafted the letter.,113,3010,20,expect,,
1082,condition1,1,3,say,Hanako said: Frankie didn't say that Omar had dinner with his manager.,10,4269,21,say,,
1082,condition1,0.03,3,filler_bad,Hanako said: Jamal didn't insist that Eva's uncle should stay for dinner.,121,4188,22,insist,,
1082,condition1,1,3,filler_good,Hanako said: Ted didn't expect that Charlie received a message.,110,4706,23,expect,,
1082,condition1,0.28,3,say_adv,Hanako said: Bill didn't say cheerfully that Hasan talked to the detectives.,8,5279,24,say cheerfully,,
1082,condition1,0.3,4,say_adv,Hanako said: Julian didn't say softly that Alex bought a birthday cake.,3,3244,25,say softly,,
1082,condition1,1,4,filler_good,Hanako said: Charlie didn't believe that Karen wrote a book.,104,4673,26,believe,,
1082,condition1,1,4,filler_good,Hanako said: Emily didn't think that Todd went out with Betty.,111,2967,27,think,,
1082,condition1,1,4,say,Hanako said: Helen didn't say that Kevin lost the keys.,2,4157,28,say,,
1082,condition1,0,4,filler_bad,Hanako said: Laura didn't suggest that Rob and Marc cut the bread. ,114,3413,29,suggest,,
1082,condition1,0,4,filler_bad,Hanako said: Yash didn't suspect that the book about astronomy was on the shelf.,124,5102,30,suspect,,
1082,condition1,1,5,filler_good,Hanako said: Sally didn't suggest that Jennifer got a cat.,105,3153,31,suggest,,
1082,condition1,0.06,5,filler_bad,Hanako said: Grace didn't reveal that Krisha's parents were moving to Texas.,123,3526,32,reveal,,
1082,condition1,0,5,filler_bad,Hanako said: Tony didn't think that Karl and Nick cooked dinner.,117,2570,33,think,,
1082,condition1,1,5,filler_good,Hanako said: Emma didn't guess that Doug would invite the mayor.,102,5139,34,guess,,
1082,condition1,0.37,5,say_adv,Hanako said: Larry didn't say wearily that Penny won the lottery.,11,3281,35,say wearily,,
1082,condition1,0.93,5,say,Hanako said: Jake didn't say that Charlie saw the robber.,6,5459,36,say,,
1072,condition1,0.96,practice,practice_acceptability_good_1,Hanako said: Fiona didn't buy pineapple.,201,,0,NA,0,
1072,condition1,0.01,practice,practice_accpetability_bad_2,Hanako said: Prisha doesn't speak Korean.,204,,0,NA,0,
1072,condition1,0.97,0,say,Hanako said: Rui didn't say that Brandon broke his laptop.,4,8064,1,say,,
1072,condition1,1,0,filler_good,Hanako said: Hannah didn't imply that Dana brought a gift.,108,7633,2,imply,,
1072,condition1,0,0,filler_bad,Hanako said: Chandler didn't reveal that the assistant to the director would give the presentation.,122,10766,3,reveal,,
1072,condition1,0.3,0,filler_bad,Hanako said: Tim didn't imply that Carol's brother signed the contract.,119,12551,4,imply,,
1072,condition1,0.96,0,filler_good,Hanako said: Ben didn't insist that Zack broke the plates.,109,4868,5,insist,,
1072,condition1,0.07,0,say_adv,Hanako said: Kate didn't say wearily that Tia brought her parents.,12,7682,6,say wearily,,
1072,condition1,0.7,1,filler_bad,Hanako said: Danny didn't suspect that the agent of the guitarist would show up.,120,9283,7,suspect,,
1072,condition1,0.99,1,filler_good,Hanako said: Charlie didn't speculate that Maddie would call her roommate.,106,6165,8,speculate,,
1072,condition1,1,1,say,Hanako said: Ollie didn't say that Ming forgot her phone. ,9,7200,9,say,,
1072,condition1,0.98,1,filler_good,Hanako said: Jessie didn't suspect that Tony would visit George.,112,5085,10,suspect,,
1072,condition1,0.03,1,filler_bad,Hanako said: Howard didn't guess that the book about astronomy was on the shelf.,124,10997,11,guess,,
1072,condition1,0.23,1,say_adv,Hanako said: Jess didn't say bluntly that Charlie saw the robber.,6,6169,12,say bluntly,,
1072,condition1,0.98,2,filler_good,Hanako said: Tony didn't think that George emailed the students.,101,4017,13,think,,
1072,condition1,0.68,2,say_adv,Hanako said: Ronald didn't say dryly that Penny won the lottery.,11,9815,14,say dryly,,
1072,condition1,0.04,2,filler_bad,Hanako said: Yash didn't expect that Judith and Laura would order pizza.,118,5652,15,expect,,
1072,condition1,0.47,2,say,Hanako said: Frankie didn't say that Alex bought a birthday cake.,3,5716,16,say,,
1072,condition1,0.91,2,filler_good,Hanako said: Jamal didn't believe that Todd went out with Betty.,111,4900,17,believe,,
1072,condition1,0.02,2,filler_bad,Hanako said: Donald didn't hope that Karl and Nick cooked dinner.,117,6034,18,hope,,
1072,condition1,0.96,3,filler_good,Hanako said: Bill didn't hope that Julian ate the cupcake.,103,4515,19,hope,,
1072,condition1,0.22,3,filler_bad,Hanako said: Laura didn't insist that Eva's uncle should stay for dinner.,121,9867,20,insist,,
1072,condition1,0.88,3,filler_good,Hanako said: Fatima didn't reveal that Doug would invite the mayor.,102,5000,21,reveal,,
1072,condition1,0.55,3,say,Hanako said: Julian didn't say that Dan knew the professor.,5,4834,22,say,,
1072,condition1,0.03,3,filler_bad,Hanako said: Amy didn't believe that Liz and Jason drank the beer. ,115,4265,23,believe,,
1072,condition1,0.59,3,say_adv,Hanako said: Sally didn't say cheerfully that Kevin lost the keys.,2,11467,24,say cheerfully,,
1072,condition1,0.61,4,say_adv,Hanako said: Matthew didn't say sternly that Yumi found the wallet.,7,4468,25,say sternly,,
1072,condition1,0.02,4,filler_bad,Hanako said: Grace didn't suggest that Kevin and Paul drafted the letter.,113,4432,26,suggest,,
1072,condition1,0.99,4,filler_good,Hanako said: Helen didn't guess that Jennifer got a cat.,105,4784,27,guess,,
1072,condition1,0.75,4,say,Hanako said: Emma didn't say that Omar had dinner with his manager.,10,4600,28,say,,
1072,condition1,0.5,4,filler_bad,Hanako said: Emily didn't speculate that Krisha's parents were moving to Texas.,123,7316,29,speculate,,
1072,condition1,0.82,4,filler_good,Hanako said: Ted didn't expect that Charlie received a message.,110,4534,30,expect,,
1072,condition1,0.05,5,filler_bad,Hanako said: Ashley didn't expect that Frank and Lisa were in the office.,116,3600,31,expect,,
1072,condition1,0.98,5,filler_good,Hanako said: Larry didn't expect that Karen wrote a book.,104,3383,32,expect,,
1072,condition1,0.02,5,filler_bad,Hanako said: Nancy didn't think that Rob and Marc cut the bread. ,114,3932,33,think,,
1072,condition1,0.95,5,filler_good,Hanako said: Igor didn't suggest that Jacy rented the truck.,107,6550,34,suggest,,
1072,condition1,0.15,5,say_adv,Hanako said: John didn't say softly that Hasan talked to the detectives.,8,13935,35,say softly,,
1072,condition1,0.73,5,say,Hanako said: Jake didn't say that Mary met with the lawyer.,1,4197,36,say,,
1103,condition1,1,practice,practice_acceptability_good_1,Hanako said: Fiona didn't buy pineapple.,201,,0,NA,0,
1103,condition1,0,practice,practice_accpetability_bad_2,Hanako said: Prisha doesn't speak Korean.,204,,0,NA,0,
1103,condition1,0,0,filler_bad,Hanako said: Sally didn't reveal that Eva's uncle should stay for dinner.,121,10908,1,reveal,,
1103,condition1,0.22,0,say_adv,Hanako said: Nancy didn't say loudly that Hasan talked to the detectives.,8,13403,2,say loudly,,
1103,condition1,0,0,filler_bad,Hanako said: Bill didn't suspect that the assistant to the director would give the presentation.,122,30767,3,suspect,,
1103,condition1,1,0,say,Hanako said: Danny didn't say that Kevin lost the keys.,2,7736,4,say,,
1103,condition1,0.98,0,filler_good,Hanako said: John didn't believe that Doug would invite the mayor.,102,19282,5,believe,,
1103,condition1,1,0,filler_good,Hanako said: Ashley didn't insist that Todd went out with Betty.,111,9625,6,insist,,
1103,condition1,0.01,1,filler_bad,Hanako said: Emily didn't hope that Judith and Laura would order pizza.,118,9958,7,hope,,
1103,condition1,0.97,1,filler_good,Hanako said: Laura didn't expect that Tony would visit George.,112,5437,8,expect,,
1103,condition1,0.24,1,say_adv,Hanako said: Frankie didn't say softly that Tia brought her parents.,12,8240,9,say softly,,
1103,condition1,0.98,1,say,Hanako said: Tony didn't say that Yumi found the wallet.,7,9624,10,say,,
1103,condition1,0.99,1,filler_good,Hanako said: Ted didn't suspect that Karen wrote a book.,104,8323,11,suspect,,
1103,condition1,0.02,1,filler_bad,Hanako said: Rui didn't expect that Liz and Jason drank the beer. ,115,10975,12,expect,,
1103,condition1,1,2,filler_good,Hanako said: Igor didn't guess that Zack broke the plates.,109,6941,13,guess,,
1103,condition1,0.51,2,say_adv,Hanako said: Tim didn't say cheerfully that Mary met with the lawyer.,1,30178,14,say cheerfully,,
1103,condition1,0.02,2,filler_bad,Hanako said: Kate didn't suggest that Carol's brother signed the contract.,119,43429,15,suggest,,
1103,condition1,0.99,2,filler_good,Hanako said: Helen didn't reveal that Jennifer got a cat.,105,38119,16,reveal,,
1103,condition1,1,2,say,Hanako said: Fatima didn't say that Charlie saw the robber.,6,6523,17,say,,
1103,condition1,0.01,2,filler_bad,Hanako said: Larry didn't insist that Kevin and Paul drafted the letter.,113,141522,18,insist,,
1103,condition1,0.02,3,filler_bad,Hanako said: Grace didn't believe that Rob and Marc cut the bread. ,114,7407,19,believe,,
1103,condition1,1,3,say,Hanako said: Jess didn't say that Alex bought a birthday cake.,3,7955,20,say,,
1103,condition1,0.01,3,filler_bad,Hanako said: Chandler didn't speculate that Karl and Nick cooked dinner.,117,6562,21,speculate,,
1103,condition1,0.98,3,filler_good,Hanako said: Jake didn't hope that Dana brought a gift.,108,6231,22,hope,,
1103,condition1,0.97,3,filler_good,Hanako said: Howard didn't suggest that Charlie received a message.,110,9457,23,suggest,,
1103,condition1,0.48,3,say_adv,Hanako said: Emma didn't say quietly that Dan knew the professor.,5,8542,24,say quietly,,
1103,condition1,0.42,4,filler_bad,Hanako said: Yash didn't think that Krisha's parents were moving to Texas.,123,46321,25,think,,
1103,condition1,0.5,4,say_adv,Hanako said: Jamal didn't say ruefully that Omar had dinner with his manager.,10,7608,26,say ruefully,,
1103,condition1,1,4,say,Hanako said: Ronald didn't say that Ming forgot her phone. ,9,7304,27,say,,
1103,condition1,0.99,4,filler_good,Hanako said: Hannah didn't speculate that Jacy rented the truck.,107,7140,28,speculate,,
1103,condition1,0.18,4,filler_bad,Hanako said: Ollie didn't guess that the agent of the guitarist would show up.,120,259123,29,guess,,
1103,condition1,0.99,4,filler_good,Hanako said: Jessie didn't think that Julian ate the cupcake.,103,6000,30,think,,
1103,condition1,0.47,5,say_adv,Hanako said: Charlie didn't say sternly that Penny won the lottery.,11,49752,31,say sternly,,
1103,condition1,0.98,5,filler_good,Hanako said: Matthew didn't expect that George emailed the students.,101,14867,32,expect,,
1103,condition1,0.45,5,filler_bad,Hanako said: Julian didn't imply that the book about astronomy was on the shelf.,124,148982,33,imply,,
1103,condition1,0.98,5,filler_good,Hanako said: Donald didn't imply that Maddie would call her roommate.,106,9041,34,imply,,
1103,condition1,0.99,5,say,Hanako said: Amy didn't say that Brandon broke his laptop.,4,130360,35,say,,
1103,condition1,0.16,5,filler_bad,Hanako said: Ben didn't expect that Frank and Lisa were in the office.,116,10333,36,expect,,
1086,condition1,1,practice,practice_acceptability_good_1,Hanako said: Fiona didn't buy pineapple.,201,,0,NA,0,
1086,condition1,0,practice,practice_accpetability_bad_2,Hanako said: Prisha doesn't speak Korean.,204,,0,NA,1,
1086,condition1,0.97,0,filler_good,Hanako said: Fatima didn't reveal that Todd went out with Betty.,111,12083,1,reveal,,
1086,condition1,0.01,0,filler_bad,Hanako said: Donald didn't reveal that Carol's brother signed the contract.,119,9017,2,reveal,,
1086,condition1,1,0,say,Hanako said: Jake didn't say that Mary met with the lawyer.,1,7782,3,say,,
1086,condition1,0.04,0,filler_bad,Hanako said: Nancy didn't hope that Karl and Nick cooked dinner.,117,10250,4,hope,,
1086,condition1,0.27,0,say_adv,Hanako said: Matthew didn't say dryly that Alex bought a birthday cake.,3,12549,5,say dryly,,
1086,condition1,0.97,0,filler_good,Hanako said: Rui didn't speculate that Julian ate the cupcake.,103,10799,6,speculate,,
1086,condition1,0.12,1,say_adv,Hanako said: Sally didn't say wistfully that Charlie saw the robber.,6,7451,7,say wistfully,,
1086,condition1,0.9,1,filler_good,Hanako said: Ollie didn't suspect that Doug would invite the mayor.,102,7154,8,suspect,,
1086,condition1,0.06,1,filler_bad,Hanako said: Kate didn't expect that Frank and Lisa were in the office.,116,9530,9,expect,,
1086,condition1,0.93,1,filler_good,Hanako said: Emily didn't imply that Tony would visit George.,112,18215,10,imply,,
1086,condition1,0.07,1,filler_bad,Hanako said: Larry didn't believe that Judith and Laura would order pizza.,118,6884,11,believe,,
1086,condition1,0.6,1,say,Hanako said: Igor didn't say that Penny won the lottery.,11,11748,12,say,,
1086,condition1,0.8,2,filler_good,Hanako said: Bill didn't expect that Maddie would call her roommate.,106,8482,13,expect,,
1086,condition1,0.31,2,say_adv,Hanako said: Jamal didn't say gently that Kevin lost the keys.,2,11935,14,say gently,,
1086,condition1,0.08,2,filler_bad,Hanako said: Frankie didn't expect that Rob and Marc cut the bread. ,114,7151,15,expect,,
1086,condition1,0.33,2,filler_bad,Hanako said: Julian didn't suspect that the book about astronomy was on the shelf.,124,15682,16,suspect,,
1086,condition1,0.77,2,filler_good,Hanako said: Chandler didn't think that Zack broke the plates.,109,6600,17,think,,
1086,condition1,0.52,2,say,Hanako said: Ronald didn't say that Yumi found the wallet.,7,10499,18,say,,
1086,condition1,0.33,3,say_adv,Hanako said: Tim didn't say bluntly that Omar had dinner with his manager.,10,9965,19,say bluntly,,
1086,condition1,0.71,3,say,Hanako said: Howard didn't say that Brandon broke his laptop.,4,6618,20,say,,
1086,condition1,0.31,3,filler_good,Hanako said: Laura didn't hope that George emailed the students.,101,8599,21,hope,,
1086,condition1,0.34,3,filler_bad,Hanako said: Ted didn't guess that Eva's uncle should stay for dinner.,121,10551,22,guess,,
1086,condition1,0.67,3,filler_good,Hanako said: Ashley didn't insist that Karen wrote a book.,104,6714,23,insist,,
1086,condition1,0.02,3,filler_bad,Hanako said: Yash didn't suggest that Liz and Jason drank the beer. ,115,6783,24,suggest,,
1086,condition1,0.01,4,filler_bad,Hanako said: Jess didn't imply that Kevin and Paul drafted the letter.,113,4384,25,imply,,
1086,condition1,0.53,4,filler_good,Hanako said: Hannah didn't believe that Charlie received a message.,110,5783,26,believe,,
1086,condition1,0.25,4,filler_bad,Hanako said: Ben didn't speculate that Krisha's parents were moving to Texas.,123,13681,27,speculate,,
1086,condition1,0.23,4,say_adv,Hanako said: Grace didn't say calmly that Ming forgot her phone. ,9,11852,28,say calmly,,
1086,condition1,0.31,4,say,Hanako said: Helen didn't say that Tia brought her parents.,12,8234,29,say,,
1086,condition1,0.47,4,filler_good,Hanako said: Jessie didn't guess that Dana brought a gift.,108,7666,30,guess,,
1086,condition1,0.19,5,filler_bad,Hanako said: Tony didn't insist that the agent of the guitarist would show up.,120,6416,31,insist,,
1086,condition1,0.28,5,say,Hanako said: Charlie didn't say that Dan knew the professor.,5,14366,32,say,,
1086,condition1,0.08,5,filler_bad,Hanako said: Amy didn't think that the assistant to the director would give the presentation.,122,5882,33,think,,
1086,condition1,0.46,5,filler_good,Hanako said: Emma didn't suggest that Jennifer got a cat.,105,3451,34,suggest,,
1086,condition1,0.49,5,filler_good,Hanako said: John didn't expect that Jacy rented the truck.,107,4517,35,expect,,
1086,condition1,0.15,5,say_adv,Hanako said: Danny didn't say ruefully that Hasan talked to the detectives.,8,3400,36,say ruefully,,
1075,condition1,1,practice,practice_acceptability_good_1,Hanako said: Fiona didn't buy pineapple.,201,,0,NA,0,
1075,condition1,0.07,practice,practice_accpetability_bad_2,Hanako said: Prisha doesn't speak Korean.,204,,0,NA,0,
1075,condition1,0.79,0,filler_good,Hanako said: Frankie didn't hope that George emailed the students.,101,13025,1,hope,,
1075,condition1,0.79,0,say_adv,Hanako said: Tony didn't say softly that Tia brought her parents.,12,18992,2,say softly,,
1075,condition1,0.4,0,filler_bad,Hanako said: Kate didn't hope that Liz and Jason drank the beer. ,115,11778,3,hope,,
1075,condition1,0.36,0,filler_bad,Hanako said: Yash didn't insist that Krisha's parents were moving to Texas.,123,22519,4,insist,,
1075,condition1,0.74,0,say,Hanako said: Jamal didn't say that Charlie saw the robber.,6,9051,5,say,,
1075,condition1,0.84,0,filler_good,Hanako said: Chandler didn't guess that Tony would visit George.,112,24734,6,guess,,
1075,condition1,0.37,1,say,Hanako said: Igor didn't say that Penny won the lottery.,11,6700,7,say,,
1075,condition1,0.82,1,filler_good,Hanako said: Amy didn't suggest that Karen wrote a book.,104,4349,8,suggest,,
1075,condition1,0.21,1,filler_bad,Hanako said: Donald didn't imply that Eva's uncle should stay for dinner.,121,9430,9,imply,,
1075,condition1,0.81,1,filler_good,Hanako said: John didn't suspect that Charlie received a message.,110,3401,10,suspect,,
1075,condition1,0.35,1,say_adv,Hanako said: Ashley didn't say sternly that Hasan talked to the detectives.,8,18407,11,say sternly,,
1075,condition1,0.13,1,filler_bad,Hanako said: Helen didn't suspect that Rob and Marc cut the bread. ,114,8592,12,suspect,,
1075,condition1,0.79,2,filler_good,Hanako said: Rui didn't reveal that Julian ate the cupcake.,103,4041,13,reveal,,
1075,condition1,0.2,2,filler_bad,Hanako said: Ted didn't reveal that the agent of the guitarist would show up.,120,8548,14,reveal,,
1075,condition1,0.18,2,say_adv,Hanako said: Charlie didn't say cheerfully that Yumi found the wallet.,7,198916,15,say cheerfully,,
1075,condition1,0.74,2,filler_good,Hanako said: Larry didn't imply that Jacy rented the truck.,107,3442,16,imply,,
1075,condition1,0.25,2,filler_bad,Hanako said: Nancy didn't speculate that Carol's brother signed the contract.,119,4936,17,speculate,,
1075,condition1,0.9,2,say,Hanako said: Emma didn't say that Mary met with the lawyer.,1,5447,18,say,,
1075,condition1,0.24,3,say_adv,Hanako said: Julian didn't say loudly that Brandon broke his laptop.,4,9383,19,say loudly,,
1075,condition1,0.17,3,filler_bad,Hanako said: Ben didn't think that the assistant to the director would give the presentation.,122,11584,20,think,,
1075,condition1,0.76,3,filler_good,Hanako said: Ronald didn't expect that Doug would invite the mayor.,102,2485,21,expect,,
1075,condition1,0.8,3,say,Hanako said: Emily didn't say that Dan knew the professor.,5,2212,22,say,,
1075,condition1,0.88,3,filler_good,Hanako said: Jessie didn't believe that Dana brought a gift.,108,2940,23,believe,,
1075,condition1,0.17,3,filler_bad,Hanako said: Howard didn't believe that Judith and Laura would order pizza.,118,6746,24,believe,,
1075,condition1,0.78,4,say,Hanako said: Ollie didn't say that Omar had dinner with his manager.,10,11018,25,say,,
1075,condition1,0.16,4,filler_bad,Hanako said: Bill didn't suggest that Karl and Nick cooked dinner.,117,3966,26,suggest,,
1075,condition1,0.64,4,say_adv,Hanako said: Jake didn't say quietly that Kevin lost the keys.,2,6148,27,say quietly,,
1075,condition1,0.17,4,filler_bad,Hanako said: Jess didn't expect that Kevin and Paul drafted the letter.,113,3683,28,expect,,
1075,condition1,0.73,4,filler_good,Hanako said: Danny didn't insist that Zack broke the plates.,109,4547,29,insist,,
1075,condition1,0.77,4,filler_good,Hanako said: Hannah didn't think that Maddie would call her roommate.,106,8474,30,think,,
1075,condition1,0.14,5,filler_bad,Hanako said: Fatima didn't expect that the book about astronomy was on the shelf.,124,8065,31,expect,,
1075,condition1,0.93,5,say_adv,Hanako said: Grace didn't say wearily that Alex bought a birthday cake.,3,3945,32,say wearily,,
1075,condition1,0.77,5,say,Hanako said: Sally didn't say that Ming forgot her phone. ,9,2920,33,say,,
1075,condition1,0.78,5,filler_good,Hanako said: Matthew didn't expect that Todd went out with Betty.,111,4452,34,expect,,
1075,condition1,0.84,5,filler_good,Hanako said: Tim didn't speculate that Jennifer got a cat.,105,2761,35,speculate,,
1075,condition1,0.14,5,filler_bad,Hanako said: Laura didn't guess that Frank and Lisa were in the office.,116,3300,36,guess,,
1067,condition1,1,practice,practice_acceptability_good_1,Hanako said: Fiona didn't buy pineapple.,201,,0,NA,0,
1067,condition1,0,practice,practice_accpetability_bad_2,Hanako said: Prisha doesn't speak Korean.,204,,0,NA,0,
1067,condition1,0,0,filler_bad,Hanako said: Hannah didn't reveal that Carol's brother signed the contract.,119,12679,1,reveal,,
1067,condition1,0,0,filler_bad,Hanako said: Jess didn't think that Eva's uncle should stay for dinner.,121,9664,2,think,,
1067,condition1,1,0,say,Hanako said: Emily didn't say that Hasan talked to the detectives.,8,8359,3,say,,
1067,condition1,1,0,filler_good,Hanako said: Tim didn't hope that Jennifer got a cat.,105,8403,4,hope,,
1067,condition1,1,0,filler_good,Hanako said: Jessie didn't expect that Dana brought a gift.,108,5749,5,expect,,
1067,condition1,1,0,say_adv,Hanako said: Amy didn't say dryly that Ming forgot her phone. ,9,8134,6,say dryly,,
1067,condition1,1,1,say_adv,Hanako said: Kate didn't say loudly that Yumi found the wallet.,7,5187,7,say loudly,,
1067,condition1,1,1,filler_good,Hanako said: Donald didn't believe that Doug would invite the mayor.,102,5546,8,believe,,
1067,condition1,0,1,filler_bad,Hanako said: Ashley didn't suspect that Frank and Lisa were in the office.,116,6649,9,suspect,,
1067,condition1,1,1,say,Hanako said: John didn't say that Mary met with the lawyer.,1,10114,10,say,,
1067,condition1,0,1,filler_bad,Hanako said: Helen didn't imply that Judith and Laura would order pizza.,118,9393,11,imply,,
1067,condition1,1,1,filler_good,Hanako said: Grace didn't expect that Julian ate the cupcake.,103,5624,12,expect,,
1067,condition1,1,2,say_adv,Hanako said: Laura didn't say sternly that Omar had dinner with his manager.,10,12297,13,say sternly,,
1067,condition1,1,2,say,Hanako said: Nancy didn't say that Penny won the lottery.,11,6187,14,say,,
1067,condition1,0,2,filler_bad,Hanako said: Jamal didn't speculate that the assistant to the director would give the presentation.,122,10378,15,speculate,,
1067,condition1,1,2,filler_good,Hanako said: Emma didn't guess that Karen wrote a book.,104,5333,16,guess,,
1067,condition1,0.61,2,filler_bad,Hanako said: Bill didn't expect that the agent of the guitarist would show up.,120,13208,17,expect,,
1067,condition1,1,2,filler_good,Hanako said: Igor didn't insist that Todd went out with Betty.,111,5894,18,insist,,
1067,condition1,0,3,filler_bad,Hanako said: Ted didn't guess that Rob and Marc cut the bread. ,114,7313,19,guess,,
1067,condition1,1,3,say,Hanako said: Rui didn't say that Kevin lost the keys.,2,11295,20,say,,
1067,condition1,1,3,filler_good,Hanako said: Charlie didn't imply that Tony would visit George.,112,6019,21,imply,,
1067,condition1,1,3,filler_good,Hanako said: Howard didn't speculate that George emailed the students.,101,5380,22,speculate,,
1067,condition1,0,3,filler_bad,Hanako said: Danny didn't believe that the book about astronomy was on the shelf.,124,13838,23,believe,,
1067,condition1,1,3,say_adv,Hanako said: Ollie didn't say ruefully that Brandon broke his laptop.,4,7075,24,say ruefully,,
1067,condition1,0.52,4,say_adv,Hanako said: Matthew didn't say wistfully that Charlie saw the robber.,6,9845,25,say wistfully,,
1067,condition1,0.37,4,filler_bad,Hanako said: Ben didn't hope that Krisha's parents were moving to Texas.,123,12026,26,hope,,
1067,condition1,1,4,filler_good,Hanako said: Ronald didn't suggest that Jacy rented the truck.,107,7819,27,suggest,,
1067,condition1,1,4,say,Hanako said: Larry didn't say that Dan knew the professor.,5,5434,28,say,,
1067,condition1,0,4,filler_bad,Hanako said: Jake didn't insist that Liz and Jason drank the beer. ,115,5675,29,insist,,
1067,condition1,1,4,filler_good,Hanako said: Fatima didn't think that Maddie would call her roommate.,106,5693,30,think,,
1067,condition1,0.28,5,say_adv,Hanako said: Chandler didn't say bluntly that Tia brought her parents.,12,9483,31,say bluntly,,
1067,condition1,1,5,filler_good,Hanako said: Tony didn't reveal that Zack broke the plates.,109,4624,32,reveal,,
1067,condition1,1,5,say,Hanako said: Frankie didn't say that Alex bought a birthday cake.,3,8775,33,say,,
1067,condition1,0,5,filler_bad,Hanako said: Yash didn't expect that Kevin and Paul drafted the letter.,113,5637,34,expect,,
1067,condition1,1,5,filler_good,Hanako said: Sally didn't suspect that Charlie received a message.,110,19991,35,suspect,,
1067,condition1,0,5,filler_bad,Hanako said: Julian didn't suggest that Karl and Nick cooked dinner.,117,12992,36,suggest,,
1076,condition1,0.63,practice,practice_acceptability_good_1,Hanako said: Fiona didn't buy pineapple.,201,,0,NA,0,
1076,condition1,0.23,practice,practice_accpetability_bad_2,Hanako said: Prisha doesn't speak Korean.,204,,0,NA,0,
1076,condition1,0.82,0,filler_good,Hanako said: Nancy didn't suspect that Tony would visit George.,112,1149,1,suspect,,
1076,condition1,0.83,0,say_adv,Hanako said: Ted didn't say wistfully that Hasan talked to the detectives.,8,1146,2,say wistfully,,
1076,condition1,0.85,0,filler_good,Hanako said: Laura didn't insist that George emailed the students.,101,787,3,insist,,
1076,condition1,0.69,0,filler_bad,Hanako said: Jamal didn't suspect that Rob and Marc cut the bread. ,114,1313,4,suspect,,
1076,condition1,0.75,0,filler_bad,Hanako said: Igor didn't insist that Liz and Jason drank the beer. ,115,1301,5,insist,,
1076,condition1,0.72,0,say,Hanako said: Donald didn't say that Dan knew the professor.,5,700,6,say,,
1076,condition1,0.75,1,filler_good,Hanako said: Yash didn't expect that Doug would invite the mayor.,102,652,7,expect,,
1076,condition1,0.73,1,say_adv,Hanako said: John didn't say cheerfully that Omar had dinner with his manager.,10,662,8,say cheerfully,,
1076,condition1,0.69,1,say,Hanako said: Helen didn't say that Charlie saw the robber.,6,835,9,say,,
1076,condition1,0.68,1,filler_bad,Hanako said: Sally didn't reveal that Kevin and Paul drafted the letter.,113,684,10,reveal,,
1076,condition1,0.75,1,filler_bad,Hanako said: Julian didn't suggest that the agent of the guitarist would show up.,120,703,11,suggest,,
1076,condition1,0.77,1,filler_good,Hanako said: Danny didn't reveal that Julian ate the cupcake.,103,708,12,reveal,,
1076,condition1,0.7,2,say,Hanako said: Jess didn't say that Mary met with the lawyer.,1,670,13,say,,
1076,condition1,0.73,2,say_adv,Hanako said: Larry didn't say wearily that Ming forgot her phone. ,9,668,14,say wearily,,
1076,condition1,0.75,2,filler_bad,Hanako said: Jake didn't imply that the assistant to the director would give the presentation.,122,1027,15,imply,,
1076,condition1,0.72,2,filler_good,Hanako said: Frankie didn't imply that Dana brought a gift.,108,1163,16,imply,,
1076,condition1,0.63,2,filler_bad,Hanako said: Howard didn't guess that Karl and Nick cooked dinner.,117,694,17,guess,,
1076,condition1,0.71,2,filler_good,Hanako said: Chandler didn't guess that Jacy rented the truck.,107,762,18,guess,,
1076,condition1,0.71,3,filler_good,Hanako said: Emily didn't speculate that Zack broke the plates.,109,1275,19,speculate,,
1076,condition1,0.7,3,filler_good,Hanako said: Tim didn't believe that Charlie received a message.,110,708,20,believe,,
1076,condition1,0.68,3,filler_bad,Hanako said: Matthew didn't speculate that Judith and Laura would order pizza.,118,623,21,speculate,,
1076,condition1,0.72,3,filler_bad,Hanako said: Ronald didn't believe that the book about astronomy was on the shelf.,124,694,22,believe,,
1076,condition1,0.68,3,say,Hanako said: Fatima didn't say that Tia brought her parents.,12,683,23,say,,
1076,condition1,0.64,3,say_adv,Hanako said: Kate didn't say sternly that Yumi found the wallet.,7,964,24,say sternly,,
1076,condition1,0.72,4,filler_bad,Hanako said: Rui didn't expect that Carol's brother signed the contract.,119,736,25,expect,,
1076,condition1,0.69,4,filler_bad,Hanako said: Amy didn't expect that Eva's uncle should stay for dinner.,121,685,26,expect,,
1076,condition1,0.65,4,say_adv,Hanako said: Ollie didn't say loudly that Kevin lost the keys.,2,1095,27,say loudly,,
1076,condition1,0.66,4,say,Hanako said: Jessie didn't say that Alex bought a birthday cake.,3,770,28,say,,
1076,condition1,0.72,4,filler_good,Hanako said: Emma didn't think that Jennifer got a cat.,105,850,29,think,,
1076,condition1,0.29,4,filler_good,Hanako said: Charlie didn't expect that Todd went out with Betty.,111,1084,30,expect,,
1076,condition1,0.29,5,say_adv,Hanako said: Ben didn't say quietly that Penny won the lottery.,11,1465,31,say quietly,,
1076,condition1,0.65,5,filler_bad,Hanako said: Grace didn't think that Frank and Lisa were in the office.,116,732,32,think,,
1076,condition1,0.27,5,filler_good,Hanako said: Hannah didn't suggest that Karen wrote a book.,104,837,33,suggest,,
1076,condition1,0.63,5,say,Hanako said: Bill didn't say that Brandon broke his laptop.,4,778,34,say,,
1076,condition1,0.27,5,filler_bad,Hanako said: Ashley didn't hope that Krisha's parents were moving to Texas.,123,1940,35,hope,,
1076,condition1,0.63,5,filler_good,Hanako said: Tony didn't hope that Maddie would call her roommate.,106,798,36,hope,,
1096,condition1,0.81,practice,practice_acceptability_good_1,Hanako said: Fiona didn't buy pineapple.,201,,0,NA,0,
1096,condition1,0.01,practice,practice_accpetability_bad_2,Hanako said: Prisha doesn't speak Korean.,204,,0,NA,0,
1096,condition1,0.04,0,filler_bad,Hanako said: Charlie didn't reveal that Liz and Jason drank the beer. ,115,8035,1,reveal,,
1096,condition1,0.72,0,filler_good,Hanako said: Nancy didn't reveal that Dana brought a gift.,108,5647,2,reveal,,
1096,condition1,0.27,0,say_adv,Hanako said: Ted didn't say quietly that Tia brought her parents.,12,17646,3,say quietly,,
1096,condition1,0.99,0,filler_good,Hanako said: Igor didn't believe that Doug would invite the mayor.,102,6630,4,believe,,
1096,condition1,0.35,0,say,Hanako said: Rui didn't say that Yumi found the wallet.,7,8912,5,say,,
1096,condition1,0.01,0,filler_bad,Hanako said: Ben didn't expect that Rob and Marc cut the bread. ,114,5564,6,expect,,
1096,condition1,0.66,1,say_adv,Hanako said: Jess didn't say dryly that Hasan talked to the detectives.,8,7997,7,say dryly,,
1096,condition1,0.82,1,say,Hanako said: Sally didn't say that Alex bought a birthday cake.,3,5794,8,say,,
1096,condition1,0.98,1,filler_good,Hanako said: Laura didn't imply that Karen wrote a book.,104,3639,9,imply,,
1096,condition1,0.02,1,filler_bad,Hanako said: Ollie didn't imply that Krisha's parents were moving to Texas.,123,11890,10,imply,,
1096,condition1,0.13,1,filler_bad,Hanako said: Amy didn't insist that Kevin and Paul drafted the letter.,113,3997,11,insist,,
1096,condition1,0.98,1,filler_good,Hanako said: Jessie didn't guess that Jacy rented the truck.,107,3289,12,guess,,
1096,condition1,0.04,2,filler_bad,Hanako said: Hannah didn't believe that Karl and Nick cooked dinner.,117,4364,13,believe,,
1096,condition1,0.97,2,say,Hanako said: Danny didn't say that Mary met with the lawyer.,1,5731,14,say,,
1096,condition1,0.15,2,filler_good,Hanako said: Bill didn't hope that Tony would visit George.,112,6620,15,hope,,
1096,condition1,0.99,2,say_adv,Hanako said: Larry didn't say cheerfully that Brandon broke his laptop.,4,4680,16,say cheerfully,,
1096,condition1,0.02,2,filler_bad,Hanako said: John didn't think that Eva's uncle should stay for dinner.,121,5433,17,think,,
1096,condition1,0.91,2,filler_good,Hanako said: Helen didn't think that Charlie received a message.,110,4976,18,think,,
1096,condition1,0.98,3,filler_good,Hanako said: Frankie didn't suspect that Todd went out with Betty.,111,6945,19,suspect,,
1096,condition1,0.99,3,say,Hanako said: Emily didn't say that Omar had dinner with his manager.,10,5098,20,say,,
1096,condition1,0.21,3,filler_bad,Hanako said: Tim didn't guess that the book about astronomy was on the shelf.,124,8915,21,guess,,
1096,condition1,0.95,3,filler_good,Hanako said: Julian didn't expect that George emailed the students.,101,4934,22,expect,,
1096,condition1,0.91,3,say_adv,Hanako said: Fatima didn't say loudly that Ming forgot her phone. ,9,6864,23,say loudly,,
1096,condition1,0.57,3,filler_bad,Hanako said: Chandler didn't suspect that the agent of the guitarist would show up.,120,9057,24,suspect,,
1096,condition1,0.99,4,say,Hanako said: Ashley didn't say that Penny won the lottery.,11,3921,25,say,,
1096,condition1,0.97,4,filler_good,Hanako said: Matthew didn't insist that Julian ate the cupcake.,103,3363,26,insist,,
1096,condition1,0.23,4,filler_bad,Hanako said: Kate didn't speculate that the assistant to the director would give the presentation.,122,5889,27,speculate,,
1096,condition1,0.91,4,say_adv,Hanako said: Tony didn't say wearily that Kevin lost the keys.,2,5378,28,say wearily,,
1096,condition1,0.97,4,filler_good,Hanako said: Jake didn't speculate that Jennifer got a cat.,105,5403,29,speculate,,
1096,condition1,0.02,4,filler_bad,Hanako said: Grace didn't suggest that Frank and Lisa were in the office.,116,4703,30,suggest,,
1096,condition1,0.04,5,filler_bad,Hanako said: Yash didn't expect that Judith and Laura would order pizza.,118,5760,31,expect,,
1096,condition1,0.94,5,say,Hanako said: Emma didn't say that Charlie saw the robber.,6,4177,32,say,,
1096,condition1,0.04,5,filler_bad,Hanako said: Jamal didn't hope that Carol's brother signed the contract.,119,6878,33,hope,,
1096,condition1,0.69,5,say_adv,Hanako said: Ronald didn't say sternly that Dan knew the professor.,5,14513,34,say sternly,,
1096,condition1,0.94,5,filler_good,Hanako said: Howard didn't suggest that Zack broke the plates.,109,4316,35,suggest,,
1096,condition1,0.42,5,filler_good,Hanako said: Donald didn't expect that Maddie would call her roommate.,106,5287,36,expect,,
1085,condition1,1,practice,practice_acceptability_good_1,Hanako said: Fiona didn't buy pineapple.,201,,0,NA,0,
1085,condition1,0,practice,practice_accpetability_bad_2,Hanako said: Prisha doesn't speak Korean.,204,,0,NA,0,
1085,condition1,0.86,0,say,Hanako said: Yash didn't say that Mary met with the lawyer.,1,12126,1,say,,
1085,condition1,0.56,0,filler_good,Hanako said: Matthew didn't speculate that Jacy rented the truck.,107,8260,2,speculate,,
1085,condition1,0.34,0,filler_good,Hanako said: Howard didn't insist that Charlie received a message.,110,4854,3,insist,,
1085,condition1,0.89,0,filler_bad,Hanako said: Grace didn't expect that Judith and Laura would order pizza.,118,7132,4,expect,,
1085,condition1,0.85,0,say_adv,Hanako said: Hannah didn't say gently that Omar had dinner with his manager.,10,8417,5,say gently,,
1085,condition1,0.12,0,filler_bad,Hanako said: Rui didn't imply that the agent of the guitarist would show up.,120,7263,6,imply,,
1085,condition1,0.16,1,filler_bad,Hanako said: Emily didn't speculate that Karl and Nick cooked dinner.,117,7299,7,speculate,,
1085,condition1,0.8,1,say_adv,Hanako said: Fatima didn't say ruefully that Hasan talked to the detectives.,8,7448,8,say ruefully,,
1085,condition1,0.03,1,filler_bad,Hanako said: Jake didn't suspect that Kevin and Paul drafted the letter.,113,6456,9,suspect,,
1085,condition1,0.48,1,filler_good,Hanako said: Tim didn't expect that Julian ate the cupcake.,103,5057,10,expect,,
1085,condition1,0.8,1,filler_good,Hanako said: Ashley didn't hope that Jennifer got a cat.,105,6260,11,hope,,
1085,condition1,0.85,1,say,Hanako said: John didn't say that Tia brought her parents.,12,8235,12,say,,
1085,condition1,0.85,2,say,Hanako said: Jessie didn't say that Kevin lost the keys.,2,9311,13,say,,
1085,condition1,0.81,2,filler_good,Hanako said: Emma didn't reveal that Karen wrote a book.,104,10194,14,reveal,,
1085,condition1,0.84,2,say_adv,Hanako said: Danny didn't say quietly that Yumi found the wallet.,7,5570,15,say quietly,,
1085,condition1,0.34,2,filler_good,Hanako said: Nancy didn't guess that Maddie would call her roommate.,106,9659,16,guess,,
1085,condition1,0.24,2,filler_bad,Hanako said: Ben didn't believe that Liz and Jason drank the beer. ,115,26907,17,believe,,
1085,condition1,0.58,2,filler_bad,Hanako said: Ollie didn't guess that Krisha's parents were moving to Texas.,123,6488,18,guess,,
1085,condition1,0.07,3,filler_bad,Hanako said: Amy didn't think that Carol's brother signed the contract.,119,5770,19,think,,
1085,condition1,0.73,3,say,Hanako said: Igor didn't say that Dan knew the professor.,5,9196,20,say,,
1085,condition1,0.78,3,filler_good,Hanako said: Donald didn't suggest that Todd went out with Betty.,111,12888,21,suggest,,
1085,condition1,0.93,3,filler_good,Hanako said: Larry didn't believe that Dana brought a gift.,108,4708,22,believe,,
1085,condition1,0.14,3,filler_bad,Hanako said: Helen didn't suggest that Frank and Lisa were in the office.,116,10301,23,suggest,,
1085,condition1,0.71,3,say_adv,Hanako said: Julian didn't say softly that Ming forgot her phone. ,9,8398,24,say softly,,
1085,condition1,0.25,4,filler_bad,Hanako said: Ted didn't insist that Eva's uncle should stay for dinner.,121,6763,25,insist,,
1085,condition1,0.16,4,filler_bad,Hanako said: Jess didn't hope that Rob and Marc cut the bread. ,114,6940,26,hope,,
1085,condition1,0.76,4,filler_good,Hanako said: Bill didn't suspect that George emailed the students.,101,5078,27,suspect,,
1085,condition1,0.6,4,filler_good,Hanako said: Kate didn't imply that Zack broke the plates.,109,6523,28,imply,,
1085,condition1,0.76,4,say,Hanako said: Frankie didn't say that Penny won the lottery.,11,5288,29,say,,
1085,condition1,0.75,4,say_adv,Hanako said: Tony didn't say dryly that Alex bought a birthday cake.,3,5626,30,say dryly,,
1085,condition1,0.95,5,filler_good,Hanako said: Jamal didn't think that Doug would invite the mayor.,102,7997,31,think,,
1085,condition1,0.94,5,filler_good,Hanako said: Laura didn't expect that Tony would visit George.,112,7456,32,expect,,
1085,condition1,0.92,5,say,Hanako said: Ronald didn't say that Charlie saw the robber.,6,4892,33,say,,
1085,condition1,0.24,5,filler_bad,Hanako said: Charlie didn't expect that the assistant to the director would give the presentation.,122,8899,34,expect,,
1085,condition1,0.81,5,say_adv,Hanako said: Sally didn't say sternly that Brandon broke his laptop.,4,6957,35,say sternly,,
1085,condition1,0.38,5,filler_bad,Hanako said: Chandler didn't reveal that the book about astronomy was on the shelf.,124,9443,36,reveal,,
1094,condition1,0.97,practice,practice_acceptability_good_1,Hanako said: Fiona didn't buy pineapple.,201,,0,NA,0,
1094,condition1,0.05,practice,practice_accpetability_bad_2,Hanako said: Prisha doesn't speak Korean.,204,,0,NA,0,
1094,condition1,0.82,0,say,Hanako said: Jamal didn't say that Alex bought a birthday cake.,3,6057,1,say,,
1094,condition1,0.09,0,filler_bad,Hanako said: Jake didn't expect that Liz and Jason drank the beer. ,115,6622,2,expect,,
1094,condition1,0.96,0,filler_good,Hanako said: Hannah didn't think that Todd went out with Betty.,111,4648,3,think,,
1094,condition1,0.08,0,filler_bad,Hanako said: Amy didn't suggest that Kevin and Paul drafted the letter.,113,5863,4,suggest,,
1094,condition1,0.31,0,say_adv,Hanako said: Danny didn't say quietly that Charlie saw the robber.,6,20849,5,say quietly,,
1094,condition1,0.91,0,filler_good,Hanako said: Yash didn't suspect that Zack broke the plates.,109,7579,6,suspect,,
1094,condition1,0.74,1,filler_good,Hanako said: John didn't insist that Jacy rented the truck.,107,6479,7,insist,,
1094,condition1,0.17,1,filler_bad,Hanako said: Julian didn't hope that the agent of the guitarist would show up.,120,12096,8,hope,,
1094,condition1,0.53,1,say_adv,Hanako said: Emma didn't say wearily that Yumi found the wallet.,7,7358,9,say wearily,,
1094,condition1,0.18,1,filler_bad,Hanako said: Ronald didn't expect that Carol's brother signed the contract.,119,3289,10,expect,,
1094,condition1,0.76,1,say,Hanako said: Igor didn't say that Ming forgot her phone. ,9,3365,11,say,,
1094,condition1,0.84,1,filler_good,Hanako said: Helen didn't reveal that Julian ate the cupcake.,103,4218,12,reveal,,
1094,condition1,0.36,2,filler_good,Hanako said: Ollie didn't expect that George emailed the students.,101,5202,13,expect,,
1094,condition1,0.68,2,filler_good,Hanako said: Grace didn't believe that Maddie would call her roommate.,106,9007,14,believe,,
1094,condition1,0.64,2,say,Hanako said: Ben didn't say that Hasan talked to the detectives.,8,11176,15,say,,
1094,condition1,0.38,2,say_adv,Hanako said: Kate didn't say calmly that Omar had dinner with his manager.,10,6629,16,say calmly,,
1094,condition1,0.31,2,filler_bad,Hanako said: Ashley didn't imply that the book about astronomy was on the shelf.,124,2924,17,imply,,
1094,condition1,0.26,2,filler_bad,Hanako said: Howard didn't insist that Eva's uncle should stay for dinner.,121,6008,18,insist,,
1094,condition1,0.29,3,filler_bad,Hanako said: Tim didn't think that the assistant to the director would give the presentation.,122,8182,19,think,,
1094,condition1,0.26,3,filler_bad,Hanako said: Rui didn't suspect that Frank and Lisa were in the office.,116,4756,20,suspect,,
1094,condition1,0.64,3,say_adv,Hanako said: Larry didn't say ruefully that Dan knew the professor.,5,3691,21,say ruefully,,
1094,condition1,0.84,3,say,Hanako said: Bill didn't say that Tia brought her parents.,12,5609,22,say,,
1094,condition1,0.81,3,filler_good,Hanako said: Matthew didn't imply that Tony would visit George.,112,8829,23,imply,,
1094,condition1,0.83,3,filler_good,Hanako said: Jessie didn't suggest that Doug would invite the mayor.,102,3689,24,suggest,,
1094,condition1,0.68,4,say_adv,Hanako said: Donald didn't say gently that Mary met with the lawyer.,1,3385,25,say gently,,
1094,condition1,0.76,4,filler_good,Hanako said: Sally didn't expect that Jennifer got a cat.,105,2163,26,expect,,
1094,condition1,0.75,4,filler_good,Hanako said: Nancy didn't guess that Karen wrote a book.,104,3591,27,guess,,
1094,condition1,0.75,4,say,Hanako said: Laura didn't say that Penny won the lottery.,11,3129,28,say,,
1094,condition1,0.29,4,filler_bad,Hanako said: Tony didn't speculate that Karl and Nick cooked dinner.,117,4470,29,speculate,,
1094,condition1,0.21,4,filler_bad,Hanako said: Emily didn't guess that Judith and Laura would order pizza.,118,2920,30,guess,,
1094,condition1,0.76,5,filler_good,Hanako said: Jess didn't speculate that Dana brought a gift.,108,2854,31,speculate,,
1094,condition1,0.13,5,filler_bad,Hanako said: Chandler didn't believe that Rob and Marc cut the bread. ,114,3737,32,believe,,
1094,condition1,0.38,5,filler_bad,Hanako said: Fatima didn't reveal that Krisha's parents were moving to Texas.,123,4655,33,reveal,,
1094,condition1,0.79,5,say,Hanako said: Charlie didn't say that Kevin lost the keys.,2,4288,34,say,,
1094,condition1,0.73,5,filler_good,Hanako said: Ted didn't hope that Charlie received a message.,110,5837,35,hope,,
1094,condition1,0.6,5,say_adv,Hanako said: Frankie didn't say wistfully that Brandon broke his laptop.,4,4060,36,say wistfully,,
1063,condition1,1,practice,practice_acceptability_good_1,Hanako said: Fiona didn't buy pineapple.,201,,0,NA,0,
1063,condition1,0,practice,practice_accpetability_bad_2,Hanako said: Prisha doesn't speak Korean.,204,,0,NA,0,
1063,condition1,1,0,filler_good,Hanako said: Sally didn't imply that Dana brought a gift.,108,27850,1,imply,,
1063,condition1,0.93,0,filler_good,Hanako said: Ashley didn't speculate that Todd went out with Betty.,111,20214,2,speculate,,
1063,condition1,0,0,filler_bad,Hanako said: Larry didn't imply that the book about astronomy was on the shelf.,124,29704,3,imply,,
1063,condition1,0.77,0,say_adv,Hanako said: Emily didn't say dryly that Dan knew the professor.,5,25446,4,say dryly,,
1063,condition1,0.55,0,filler_bad,Hanako said: Ted didn't guess that the agent of the guitarist would show up.,120,18723,5,guess,,
1063,condition1,0.96,0,say,Hanako said: Nancy didn't say that Tia brought her parents.,12,13708,6,say,,
1063,condition1,0.76,1,say_adv,Hanako said: Tony didn't say calmly that Mary met with the lawyer.,1,9824,7,say calmly,,
1063,condition1,1,1,filler_good,Hanako said: Laura didn't insist that Karen wrote a book.,104,9357,8,insist,,
1063,condition1,0.7,1,filler_bad,Hanako said: Donald didn't expect that Krisha's parents were moving to Texas.,123,18898,9,expect,,
1063,condition1,1,1,say,Hanako said: Ollie didn't say that Hasan talked to the detectives.,8,13880,10,say,,
1063,condition1,0,1,filler_bad,Hanako said: Danny didn't believe that Karl and Nick cooked dinner.,117,13496,11,believe,,
1063,condition1,1,1,filler_good,Hanako said: Hannah didn't suggest that Jacy rented the truck.,107,13060,12,suggest,,
1063,condition1,0.9,2,filler_good,Hanako said: Grace didn't expect that Jennifer got a cat.,105,15121,13,expect,,
1063,condition1,1,2,say,Hanako said: Frankie didn't say that Ming forgot her phone. ,9,8892,14,say,,
1063,condition1,0,2,filler_bad,Hanako said: Ben didn't think that Frank and Lisa were in the office.,116,9492,15,think,,
1063,condition1,0.56,2,say_adv,Hanako said: Chandler didn't say quietly that Charlie saw the robber.,6,15056,16,say quietly,,
1063,condition1,0,2,filler_bad,Hanako said: Amy didn't hope that Judith and Laura would order pizza.,118,12789,17,hope,,
1063,condition1,0.56,2,filler_good,Hanako said: Rui didn't expect that Zack broke the plates.,109,31756,18,expect,,
1063,condition1,1,3,filler_good,Hanako said: Howard didn't believe that Julian ate the cupcake.,103,12493,19,believe,,
1063,condition1,0.94,3,say_adv,Hanako said: Tim didn't say loudly that Omar had dinner with his manager.,10,20008,20,say loudly,,
1063,condition1,0,3,filler_bad,Hanako said: Emma didn't suspect that the assistant to the director would give the presentation.,122,16536,21,suspect,,
1063,condition1,1,3,say,Hanako said: Yash didn't say that Yumi found the wallet.,7,14622,22,say,,
1063,condition1,0,3,filler_bad,Hanako said: Jake didn't expect that Kevin and Paul drafted the letter.,113,20003,23,expect,,
1063,condition1,0.94,3,filler_good,Hanako said: John didn't guess that Tony would visit George.,112,14624,24,guess,,
1063,condition1,0.99,4,filler_good,Hanako said: Kate didn't reveal that Maddie would call her roommate.,106,13258,25,reveal,,
1063,condition1,0.01,4,filler_bad,Hanako said: Charlie didn't reveal that Liz and Jason drank the beer. ,115,9454,26,reveal,,
1063,condition1,0.98,4,filler_good,Hanako said: Jess didn't suspect that Charlie received a message.,110,10776,27,suspect,,
1063,condition1,0.07,4,filler_bad,Hanako said: Bill didn't insist that Carol's brother signed the contract.,119,24375,28,insist,,
1063,condition1,0.9,4,say_adv,Hanako said: Julian didn't say wistfully that Penny won the lottery.,11,8968,29,say wistfully,,
1063,condition1,0.98,4,say,Hanako said: Jessie didn't say that Alex bought a birthday cake.,3,7101,30,say,,
1063,condition1,0.99,5,say,Hanako said: Ronald didn't say that Brandon broke his laptop.,4,8351,31,say,,
1063,condition1,0.03,5,filler_bad,Hanako said: Helen didn't suggest that Rob and Marc cut the bread. ,114,13471,32,suggest,,
1063,condition1,0.95,5,filler_good,Hanako said: Igor didn't hope that Doug would invite the mayor.,102,13335,33,hope,,
1063,condition1,0.98,5,filler_good,Hanako said: Jamal didn't think that George emailed the students.,101,23023,34,think,,
1063,condition1,0.86,5,say_adv,Hanako said: Matthew didn't say gently that Kevin lost the keys.,2,8356,35,say gently,,
1063,condition1,0.37,5,filler_bad,Hanako said: Fatima didn't speculate that Eva's uncle should stay for dinner.,121,11654,36,speculate,,
1098,condition1,1,practice,practice_acceptability_good_1,Hanako said: Fiona didn't buy pineapple.,201,,0,NA,0,
1098,condition1,0,practice,practice_accpetability_bad_2,Hanako said: Prisha doesn't speak Korean.,204,,0,NA,1,
1098,condition1,0.03,0,filler_bad,Hanako said: Jess didn't expect that Eva's uncle should stay for dinner.,121,12786,1,expect,,
1098,condition1,0.34,0,say_adv,Hanako said: Frankie didn't say ruefully that Charlie saw the robber.,6,12857,2,say ruefully,,
1098,condition1,0.18,0,filler_bad,Hanako said: Yash didn't speculate that the assistant to the director would give the presentation.,122,9169,3,speculate,,
1098,condition1,1,0,filler_good,Hanako said: Charlie didn't think that Dana brought a gift.,108,8959,4,think,,
1098,condition1,0.24,0,filler_good,Hanako said: Jessie didn't expect that Charlie received a message.,110,7988,5,expect,,
1098,condition1,0.75,0,say,Hanako said: Kate didn't say that Hasan talked to the detectives.,8,10438,6,say,,
1098,condition1,0.5,1,filler_good,Hanako said: Ashley didn't believe that Zack broke the plates.,109,10311,7,believe,,
1098,condition1,0.63,1,filler_bad,Hanako said: Chandler didn't believe that Krisha's parents were moving to Texas.,123,11310,8,believe,,
1098,condition1,0.62,1,say,Hanako said: Tony didn't say that Yumi found the wallet.,7,9903,9,say,,
1098,condition1,0.29,1,filler_bad,Hanako said: Ben didn't imply that Karl and Nick cooked dinner.,117,8402,10,imply,,
1098,condition1,0.69,1,filler_good,Hanako said: Bill didn't suspect that Jacy rented the truck.,107,3670,11,suspect,,
1098,condition1,0.71,1,say_adv,Hanako said: Matthew didn't say softly that Tia brought her parents.,12,1157,12,say softly,,
1098,condition1,0.64,2,say_adv,Hanako said: Fatima didn't say loudly that Ming forgot her phone. ,9,898,13,say loudly,,
1098,condition1,0.49,2,filler_good,Hanako said: Donald didn't expect that Maddie would call her roommate.,106,800,14,expect,,
1098,condition1,0.48,2,filler_bad,Hanako said: Ronald didn't hope that Kevin and Paul drafted the letter.,113,710,15,hope,,
1098,condition1,0.48,2,filler_bad,Hanako said: Emily didn't reveal that Liz and Jason drank the beer. ,115,1650,16,reveal,,
1098,condition1,0.48,2,filler_good,Hanako said: Julian didn't imply that Doug would invite the mayor.,102,767,17,imply,,
1098,condition1,0.49,2,say,Hanako said: Ted didn't say that Omar had dinner with his manager.,10,744,18,say,,
1098,condition1,0.49,3,say,Hanako said: Howard didn't say that Dan knew the professor.,5,996,19,say,,
1098,condition1,0.5,3,filler_bad,Hanako said: John didn't think that the agent of the guitarist would show up.,120,710,20,think,,
1098,condition1,0.49,3,say_adv,Hanako said: Sally didn't say dryly that Mary met with the lawyer.,1,704,21,say dryly,,
1098,condition1,0.49,3,filler_bad,Hanako said: Hannah didn't suggest that Rob and Marc cut the bread. ,114,663,22,suggest,,
1098,condition1,0.48,3,filler_good,Hanako said: Igor didn't suggest that George emailed the students.,101,1210,23,suggest,,
1098,condition1,0.48,3,filler_good,Hanako said: Jamal didn't hope that Todd went out with Betty.,111,666,24,hope,,
1098,condition1,0.48,4,filler_bad,Hanako said: Ollie didn't expect that Judith and Laura would order pizza.,118,1553,25,expect,,
1098,condition1,0.5,4,filler_good,Hanako said: Grace didn't reveal that Tony would visit George.,112,719,26,reveal,,
1098,condition1,0.5,4,say_adv,Hanako said: Tim didn't say gently that Brandon broke his laptop.,4,856,27,say gently,,
1098,condition1,0.49,4,filler_bad,Hanako said: Helen didn't insist that Frank and Lisa were in the office.,116,1691,28,insist,,
1098,condition1,0.48,4,filler_good,Hanako said: Emma didn't guess that Jennifer got a cat.,105,872,29,guess,,
1098,condition1,0.48,4,say,Hanako said: Nancy didn't say that Kevin lost the keys.,2,939,30,say,,
1098,condition1,0.48,5,filler_good,Hanako said: Amy didn't speculate that Karen wrote a book.,104,849,31,speculate,,
1098,condition1,0.47,5,filler_bad,Hanako said: Larry didn't suspect that the book about astronomy was on the shelf.,124,1148,32,suspect,,
1098,condition1,0.48,5,filler_good,Hanako said: Laura didn't insist that Julian ate the cupcake.,103,793,33,insist,,
1098,condition1,0.48,5,filler_bad,Hanako said: Rui didn't guess that Carol's brother signed the contract.,119,879,34,guess,,
1098,condition1,0.48,5,say_adv,Hanako said: Jake didn't say calmly that Penny won the lottery.,11,948,35,say calmly,,
1098,condition1,0.48,5,say,Hanako said: Danny didn't say that Alex bought a birthday cake.,3,849,36,say,,
1099,condition1,0.72,practice,practice_acceptability_good_1,Hanako said: Fiona didn't buy pineapple.,201,,0,NA,0,
1099,condition1,0.21,practice,practice_accpetability_bad_2,Hanako said: Prisha doesn't speak Korean.,204,,0,NA,0,
1099,condition1,0.61,0,filler_bad,Hanako said: Sally didn't think that the assistant to the director would give the presentation.,122,2715,1,think,,
1099,condition1,0.7,0,filler_good,Hanako said: Ben didn't expect that Todd went out with Betty.,111,2099,2,expect,,
1099,condition1,0.67,0,filler_good,Hanako said: Frankie didn't think that George emailed the students.,101,1866,3,think,,
1099,condition1,0.29,0,filler_bad,Hanako said: Bill didn't speculate that the book about astronomy was on the shelf.,124,1749,4,speculate,,
1099,condition1,0.62,0,say_adv,Hanako said: Grace didn't say bluntly that Omar had dinner with his manager.,10,1900,5,say bluntly,,
1099,condition1,0.71,0,say,Hanako said: Larry didn't say that Yumi found the wallet.,7,1718,6,say,,
1099,condition1,0.72,1,filler_good,Hanako said: Nancy didn't believe that Julian ate the cupcake.,103,3380,7,believe,,
1099,condition1,0.26,1,filler_good,Hanako said: Donald didn't guess that Tony would visit George.,112,1600,8,guess,,
1099,condition1,0.25,1,say,Hanako said: Howard didn't say that Alex bought a birthday cake.,3,1883,9,say,,
1099,condition1,0.69,1,filler_bad,Hanako said: Ted didn't expect that Karl and Nick cooked dinner.,117,142136,10,expect,,
1099,condition1,0.68,1,say_adv,Hanako said: Jessie didn't say wistfully that Charlie saw the robber.,6,1614,11,say wistfully,,
1099,condition1,0.88,1,filler_bad,Hanako said: Fatima didn't hope that the agent of the guitarist would show up.,120,2032,12,hope,,
1099,condition1,0.82,2,filler_bad,Hanako said: Helen didn't reveal that Kevin and Paul drafted the letter.,113,2083,13,reveal,,
1099,condition1,0.15,2,filler_bad,Hanako said: Tony didn't believe that Rob and Marc cut the bread. ,114,1383,14,believe,,
1099,condition1,0.12,2,say,Hanako said: Chandler didn't say that Hasan talked to the detectives.,8,2500,15,say,,
1099,condition1,0.11,2,filler_good,Hanako said: Laura didn't reveal that Maddie would call her roommate.,106,1316,16,reveal,,
1099,condition1,0.17,2,filler_good,Hanako said: Hannah didn't suggest that Jacy rented the truck.,107,1817,17,suggest,,
1099,condition1,0.78,2,say_adv,Hanako said: Kate didn't say sternly that Mary met with the lawyer.,1,1616,18,say sternly,,
1099,condition1,0.88,3,filler_good,Hanako said: Amy didn't hope that Zack broke the plates.,109,1532,19,hope,,
1099,condition1,0.89,3,filler_bad,Hanako said: Rui didn't expect that Liz and Jason drank the beer. ,115,1467,20,expect,,
1099,condition1,0.88,3,say_adv,Hanako said: Julian didn't say wearily that Penny won the lottery.,11,1568,21,say wearily,,
1099,condition1,0.96,3,filler_good,Hanako said: Jess didn't expect that Jennifer got a cat.,105,1535,22,expect,,
1099,condition1,0.83,3,filler_bad,Hanako said: Ollie didn't insist that Judith and Laura would order pizza.,118,1347,23,insist,,
1099,condition1,0.95,3,say,Hanako said: Jamal didn't say that Dan knew the professor.,5,1854,24,say,,
1099,condition1,1,4,filler_good,Hanako said: Ashley didn't imply that Charlie received a message.,110,1548,25,imply,,
1099,condition1,0.26,4,filler_good,Hanako said: John didn't insist that Karen wrote a book.,104,1299,26,insist,,
1099,condition1,0.31,4,say,Hanako said: Emily didn't say that Kevin lost the keys.,2,1600,27,say,,
1099,condition1,0.72,4,say_adv,Hanako said: Jake didn't say cheerfully that Tia brought her parents.,12,1616,28,say cheerfully,,
1099,condition1,0.71,4,filler_bad,Hanako said: Ronald didn't guess that Krisha's parents were moving to Texas.,123,1367,29,guess,,
1099,condition1,0.26,4,filler_bad,Hanako said: Charlie didn't suggest that Eva's uncle should stay for dinner.,121,1301,30,suggest,,
1099,condition1,0.14,5,say_adv,Hanako said: Igor didn't say softly that Ming forgot her phone. ,9,1984,31,say softly,,
1099,condition1,0,5,filler_bad,Hanako said: Tim didn't imply that Carol's brother signed the contract.,119,1668,32,imply,,
1099,condition1,0.1,5,filler_good,Hanako said: Danny didn't suspect that Dana brought a gift.,108,1930,33,suspect,,
1099,condition1,0.09,5,filler_good,Hanako said: Yash didn't speculate that Doug would invite the mayor.,102,2569,34,speculate,,
1099,condition1,0.04,5,say,Hanako said: Matthew didn't say that Brandon broke his laptop.,4,1380,35,say,,
1099,condition1,0.04,5,filler_bad,Hanako said: Emma didn't suspect that Frank and Lisa were in the office.,116,1335,36,suspect,,
1081,condition1,1,practice,practice_acceptability_good_1,Hanako said: Fiona didn't buy pineapple.,201,,0,NA,0,
1081,condition1,0,practice,practice_accpetability_bad_2,Hanako said: Prisha doesn't speak Korean.,204,,0,NA,0,
1081,condition1,0.13,0,filler_bad,Hanako said: Bill didn't speculate that Judith and Laura would order pizza.,118,21958,1,speculate,,
1081,condition1,0.8,0,filler_good,Hanako said: Charlie didn't believe that Jacy rented the truck.,107,7263,2,believe,,
1081,condition1,0.24,0,filler_bad,Hanako said: Tony didn't suggest that Liz and Jason drank the beer. ,115,8545,3,suggest,,
1081,condition1,0.8,0,say,Hanako said: Frankie didn't say that Dan knew the professor.,5,15914,4,say,,
1081,condition1,0.29,0,say_adv,Hanako said: Fatima didn't say softly that Omar had dinner with his manager.,10,9138,5,say softly,,
1081,condition1,1,0,filler_good,Hanako said: Emma didn't suspect that Charlie received a message.,110,12424,6,suspect,,
1081,condition1,0.96,1,filler_good,Hanako said: Ollie didn't expect that Maddie would call her roommate.,106,21934,7,expect,,
1081,condition1,0.97,1,say,Hanako said: Helen didn't say that Alex bought a birthday cake.,3,5391,8,say,,
1081,condition1,0.18,1,say_adv,Hanako said: Yash didn't say gently that Brandon broke his laptop.,4,39395,9,say gently,,
1081,condition1,0.97,1,filler_good,Hanako said: Tim didn't guess that Julian ate the cupcake.,103,5747,10,guess,,
1081,condition1,0.23,1,filler_bad,Hanako said: Matthew didn't hope that the agent of the guitarist would show up.,120,9355,11,hope,,
1081,condition1,0.97,1,filler_bad,Hanako said: Kate didn't think that the assistant to the director would give the presentation.,122,6125,12,think,,
1081,condition1,0.98,2,filler_good,Hanako said: Rui didn't reveal that Zack broke the plates.,109,28871,13,reveal,,
1081,condition1,0.09,2,filler_bad,Hanako said: Julian didn't insist that Karl and Nick cooked dinner.,117,5982,14,insist,,
1081,condition1,0.96,2,say,Hanako said: Nancy didn't say that Mary met with the lawyer.,1,5623,15,say,,
1081,condition1,0.28,2,filler_bad,Hanako said: Laura didn't believe that Kevin and Paul drafted the letter.,113,7702,16,believe,,
1081,condition1,0.97,2,filler_good,Hanako said: Jess didn't insist that Jennifer got a cat.,105,6377,17,insist,,
1081,condition1,0.19,2,say_adv,Hanako said: Jessie didn't say wistfully that Kevin lost the keys.,2,9883,18,say wistfully,,
1081,condition1,0.49,3,filler_good,Hanako said: John didn't hope that Tony would visit George.,112,7069,19,hope,,
1081,condition1,0.58,3,say,Hanako said: Ted didn't say that Tia brought her parents.,12,9663,20,say,,
1081,condition1,0.15,3,filler_bad,Hanako said: Jamal didn't expect that Carol's brother signed the contract.,119,9269,21,expect,,
1081,condition1,0.27,3,say_adv,Hanako said: Ronald didn't say loudly that Penny won the lottery.,11,5872,22,say loudly,,
1081,condition1,0.75,3,filler_good,Hanako said: Igor didn't expect that Todd went out with Betty.,111,16356,23,expect,,
1081,condition1,0.2,3,filler_bad,Hanako said: Chandler didn't expect that Krisha's parents were moving to Texas.,123,5793,24,expect,,
1081,condition1,0.26,4,filler_bad,Hanako said: Jake didn't guess that the book about astronomy was on the shelf.,124,10734,25,guess,,
1081,condition1,0.19,4,filler_bad,Hanako said: Ashley didn't suspect that Frank and Lisa were in the office.,116,5635,26,suspect,,
1081,condition1,0.73,4,say,Hanako said: Sally didn't say that Charlie saw the robber.,6,4852,27,say,,
1081,condition1,0.98,4,filler_good,Hanako said: Emily didn't imply that Karen wrote a book.,104,4480,28,imply,,
1081,condition1,0.98,4,filler_good,Hanako said: Danny didn't think that Dana brought a gift.,108,4465,29,think,,
1081,condition1,0.35,4,say_adv,Hanako said: Larry didn't say cheerfully that Yumi found the wallet.,7,4101,30,say cheerfully,,
1081,condition1,0.28,5,filler_bad,Hanako said: Grace didn't reveal that Rob and Marc cut the bread. ,114,5809,31,reveal,,
1081,condition1,0.21,5,say_adv,Hanako said: Ben didn't say sternly that Hasan talked to the detectives.,8,11527,32,say sternly,,
1081,condition1,0.2,5,filler_bad,Hanako said: Hannah didn't imply that Eva's uncle should stay for dinner.,121,4494,33,imply,,
1081,condition1,0.75,5,say,Hanako said: Donald didn't say that Ming forgot her phone. ,9,4259,34,say,,
1081,condition1,1,5,filler_good,Hanako said: Howard didn't speculate that Doug would invite the mayor.,102,6874,35,speculate,,
1081,condition1,0.98,5,filler_good,Hanako said: Amy didn't suggest that George emailed the students.,101,4952,36,suggest,,
1077,condition1,1,practice,practice_acceptability_good_1,Hanako said: Fiona didn't buy pineapple.,201,,0,NA,0,
1077,condition1,0,practice,practice_accpetability_bad_2,Hanako said: Prisha doesn't speak Korean.,204,,0,NA,0,
1077,condition1,0,0,filler_bad,Hanako said: Yash didn't believe that Carol's brother signed the contract.,119,12160,1,believe,,
1077,condition1,0.01,0,filler_bad,Hanako said: Tim didn't suggest that Kevin and Paul drafted the letter.,113,18981,2,suggest,,
1077,condition1,0.22,0,filler_good,Hanako said: Danny didn't suspect that Todd went out with Betty.,111,25075,3,suspect,,
1077,condition1,0.59,0,say,Hanako said: Chandler didn't say that Yumi found the wallet.,7,20997,4,say,,
1077,condition1,0.15,0,say_adv,Hanako said: Jake didn't say wearily that Mary met with the lawyer.,1,13941,5,say wearily,,
1077,condition1,0.96,0,filler_good,Hanako said: Jessie didn't reveal that Tony would visit George.,112,23866,6,reveal,,
1077,condition1,0.13,1,say_adv,Hanako said: Helen didn't say gently that Kevin lost the keys.,2,6399,7,say gently,,
1077,condition1,0,1,filler_bad,Hanako said: Ronald didn't expect that Karl and Nick cooked dinner.,117,12956,8,expect,,
1077,condition1,0,1,filler_bad,Hanako said: Ashley didn't guess that Frank and Lisa were in the office.,116,5677,9,guess,,
1077,condition1,1,1,say,Hanako said: Donald didn't say that Ming forgot her phone. ,9,12241,10,say,,
1077,condition1,0.44,1,filler_good,Hanako said: Nancy didn't imply that Doug would invite the mayor.,102,9018,11,imply,,
1077,condition1,0.77,1,filler_good,Hanako said: Fatima didn't suggest that Dana brought a gift.,108,15596,12,suggest,,
1077,condition1,0,2,filler_bad,Hanako said: Kate didn't insist that the book about astronomy was on the shelf.,124,14144,13,insist,,
1077,condition1,0.15,2,say_adv,Hanako said: John didn't say dryly that Tia brought her parents.,12,12016,14,say dryly,,
1077,condition1,0.22,2,filler_good,Hanako said: Matthew didn't expect that Jennifer got a cat.,105,66970,15,expect,,
1077,condition1,0.1,2,filler_bad,Hanako said: Emily didn't reveal that the agent of the guitarist would show up.,120,10119,16,reveal,,
1077,condition1,1,2,say,Hanako said: Julian didn't say that Alex bought a birthday cake.,3,7767,17,say,,
1077,condition1,0.63,2,filler_good,Hanako said: Charlie didn't think that Charlie received a message.,110,13719,18,think,,
1077,condition1,0.97,3,filler_good,Hanako said: Tony didn't insist that Jacy rented the truck.,107,13677,19,insist,,
1077,condition1,0.05,3,say_adv,Hanako said: Hannah didn't say quietly that Hasan talked to the detectives.,8,10525,20,say quietly,,
1077,condition1,0,3,filler_bad,Hanako said: Laura didn't think that Rob and Marc cut the bread. ,114,26894,21,think,,
1077,condition1,0.38,3,filler_good,Hanako said: Igor didn't believe that Zack broke the plates.,109,7012,22,believe,,
1077,condition1,0,3,filler_bad,Hanako said: Ted didn't expect that Eva's uncle should stay for dinner.,121,6920,23,expect,,
1077,condition1,1,3,say,Hanako said: Rui didn't say that Charlie saw the robber.,6,6506,24,say,,
1077,condition1,0.41,4,say_adv,Hanako said: Ben didn't say ruefully that Omar had dinner with his manager.,10,17953,25,say ruefully,,
1077,condition1,0,4,filler_bad,Hanako said: Bill didn't suspect that Liz and Jason drank the beer. ,115,6285,26,suspect,,
1077,condition1,1,4,say,Hanako said: Ollie didn't say that Brandon broke his laptop.,4,8679,27,say,,
1077,condition1,0,4,filler_bad,Hanako said: Jess didn't speculate that Krisha's parents were moving to Texas.,123,9377,28,speculate,,
1077,condition1,0.46,4,filler_good,Hanako said: Amy didn't hope that Julian ate the cupcake.,103,12004,29,hope,,
1077,condition1,0.56,4,filler_good,Hanako said: Sally didn't guess that Karen wrote a book.,104,14751,30,guess,,
1077,condition1,0.2,5,filler_good,Hanako said: Emma didn't expect that Maddie would call her roommate.,106,10345,31,expect,,
1077,condition1,0,5,filler_bad,Hanako said: Jamal didn't hope that the assistant to the director would give the presentation.,122,15988,32,hope,,
1077,condition1,0.16,5,filler_good,Hanako said: Frankie didn't speculate that George emailed the students.,101,13052,33,speculate,,
1077,condition1,0.09,5,say_adv,Hanako said: Howard didn't say wistfully that Dan knew the professor.,5,8195,34,say wistfully,,
1077,condition1,0,5,filler_bad,Hanako said: Larry didn't imply that Judith and Laura would order pizza.,118,5263,35,imply,,
1077,condition1,0.31,5,say,Hanako said: Grace didn't say that Penny won the lottery.,11,7036,36,say,,
1074,condition1,0.99,practice,practice_acceptability_good_1,Hanako said: Fiona didn't buy pineapple.,201,,0,NA,0,
1074,condition1,0.03,practice,practice_accpetability_bad_2,Hanako said: Prisha doesn't speak Korean.,204,,0,NA,0,
1074,condition1,0.45,0,say_adv,Hanako said: Danny didn't say quietly that Yumi found the wallet.,7,11781,1,say quietly,,
1074,condition1,1,0,filler_good,Hanako said: Bill didn't expect that Doug would invite the mayor.,102,8400,2,expect,,
1074,condition1,0.8,0,filler_good,Hanako said: Tim didn't imply that Tony would visit George.,112,5033,3,imply,,
1074,condition1,0.97,0,say,Hanako said: Donald didn't say that Mary met with the lawyer.,1,4914,4,say,,
1074,condition1,0.2,0,filler_bad,Hanako said: Emma didn't guess that the book about astronomy was on the shelf.,124,3803,5,guess,,
1074,condition1,0.22,0,filler_bad,Hanako said: Fatima didn't speculate that Krisha's parents were moving to Texas.,123,17867,6,speculate,,
1074,condition1,0.05,1,filler_bad,Hanako said: Matthew didn't insist that Rob and Marc cut the bread. ,114,3065,7,insist,,
1074,condition1,0.93,1,say,Hanako said: Nancy didn't say that Penny won the lottery.,11,3918,8,say,,
1074,condition1,0.96,1,filler_good,Hanako said: Tony didn't insist that Zack broke the plates.,109,7381,9,insist,,
1074,condition1,0.97,1,filler_good,Hanako said: Ollie didn't suggest that Charlie received a message.,110,1951,10,suggest,,
1074,condition1,0.99,1,say_adv,Hanako said: Frankie didn't say calmly that Tia brought her parents.,12,2067,11,say calmly,,
1074,condition1,0.02,1,filler_bad,Hanako said: Ben didn't expect that Kevin and Paul drafted the letter.,113,5350,12,expect,,
1074,condition1,0.98,2,filler_good,Hanako said: Rui didn't suspect that Todd went out with Betty.,111,3915,13,suspect,,
1074,condition1,0.95,2,say_adv,Hanako said: Jess didn't say cheerfully that Brandon broke his laptop.,4,3917,14,say cheerfully,,
1074,condition1,0.04,2,filler_bad,Hanako said: Julian didn't reveal that Judith and Laura would order pizza.,118,4018,15,reveal,,
1074,condition1,0.81,2,say,Hanako said: John didn't say that Alex bought a birthday cake.,3,5015,16,say,,
1074,condition1,0.99,2,filler_good,Hanako said: Larry didn't speculate that Dana brought a gift.,108,1933,17,speculate,,
1074,condition1,0.15,2,filler_bad,Hanako said: Jamal didn't think that Carol's brother signed the contract.,119,3418,18,think,,
1074,condition1,0.03,3,filler_bad,Hanako said: Sally didn't hope that the agent of the guitarist would show up.,120,4315,19,hope,,
1074,condition1,0.55,3,say_adv,Hanako said: Ted didn't say wistfully that Hasan talked to the detectives.,8,4167,20,say wistfully,,
1074,condition1,0.94,3,filler_good,Hanako said: Charlie didn't believe that Jennifer got a cat.,105,1850,21,believe,,
1074,condition1,0.13,3,filler_bad,Hanako said: Emily didn't expect that Liz and Jason drank the beer. ,115,15034,22,expect,,
1074,condition1,0.87,3,say,Hanako said: Howard didn't say that Kevin lost the keys.,2,17448,23,say,,
1074,condition1,0.79,3,filler_good,Hanako said: Ashley didn't think that Jacy rented the truck.,107,1667,24,think,,
