workerid,proliferate.condition,acceptability_rating,bg_response,block_id,condition,context,item_id,original_bg_choice,rt,task,trial_num,verb,wrong_attempts,error
1362,condition1,0.95,NA,practice,practice_acceptability_good_1,Hanako said: Fiona didn't buy <strong>PINEAPPLES</strong>.,201,,,acceptability,0,NA,0,
1362,condition1,NA,correct,practice,practice_bg_good_2,Hanako said: Vera didn't <strong>DRIVE</strong> to Michigan.,202,How Vera travelled to Michigan.,,backgroundedness,0,NA,,
1362,condition1,0.08,NA,practice,practice_accpetability_bad_2,Hanako said: Prisha doesn't speak <strong>KOREAN</strong>.,204,,,acceptability,0,NA,1,
1362,condition1,NA,correct,practice,practice_bg_bad_1,Hanako said: Hank didn't buy the <strong>RED</strong> car.,203,Which car Hank bought.,,backgroundedness,0,NA,,
1362,condition1,0.96,NA,0,filler_bad_1,Hanako said: Larry didn't believe that Karl and <strong>NICK</strong> cooked dinner.,117,NA,15720,acceptability,1,believe,,
1362,condition1,NA,embed,0,filler_bad_2,Hanako said: Rui didn't imply that <strong>CAROL</strong>'s brother signed the contract.,119,"Whose brother signed the contract, according to Rui.",48138,backgroundedness,2,imply,,
1362,condition1,0.74,NA,0,filler_good_1,Hanako said: Grace didn't suggest that Karen wrote a <strong>BOOK</strong>.,104,NA,57047,acceptability,3,suggest,,
1362,condition1,NA,embed,0,filler_good_2,Hanako said: <strong>JESS</strong> didn't reveal that Todd went out with Betty.,111,Who revealed that Todd went out with Betty.,43383,backgroundedness,4,reveal,,
1362,condition1,0.22,NA,0,embed_focus,Hanako said: Bill didn't say cheerfully that Dan knew the <strong>PROFESSOR</strong>.,5,NA,174476,acceptability,5,cheerfully,,
1362,condition1,NA,verb,0,verb_focus,Hanako said: Jake didn't say <strong>STERNLY</strong> that Yumi found the wallet.,7,The way Jake said that Yumi found the wallet.,23689,backgroundedness,6,sternly,,
1362,condition1,0.18,NA,1,verb_focus,Hanako said: Amy didn't say <strong>WEARILY</strong> that Charlie saw the robber.,6,NA,11157,acceptability,7,wearily,,
1362,condition1,0.95,NA,1,filler_bad_2,Hanako said: Donald didn't reveal that <strong>KRISHNA</strong>'s parents were moving to Texas.,123,NA,42852,acceptability,8,reveal,,
1362,condition1,NA,verb,1,filler_good_1,Hanako said: Nancy didn't suspect that Julian ate the <strong> CUPCAKE</strong>.,103,"Who ate the cupcake, according to Nancy.",14547,backgroundedness,9,suspect,,
1362,condition1,NA,embed,1,filler_bad_1,Hanako said: Emily didn't say that Kevin and <strong>PAUL</strong> drafted the letter.,113,"Who else drafted the letter other than Kevin, according to Emily.",17006,backgroundedness,10,say,,
1362,condition1,NA,verb,1,filler_good_2,Hanako said: <strong>JULIAN</strong> didn't guess that Charlie received a message.,110,"What Charlie received, according to Julian.",133322,backgroundedness,11,guess,,
1362,condition1,0.47,NA,1,embed_focus,Hanako said: John didn't say softly that Mary met with the <strong>LAWYER</strong>.,1,NA,10777,acceptability,12,softly,,
1362,condition1,0.03,NA,2,filler_bad_1,Hanako said: Tim didn't suspect that Liz and <strong>JASON</strong> drank the beer. ,115,NA,16238,acceptability,13,suspect,,
1362,condition1,NA,verb,2,embed_focus,Hanako said: Ashley didn't say gently that Hasan talked to the <strong>DETECTIVES</strong>.,8,The way Ashley said that Hasan talked to the detectives.,15157,backgroundedness,14,gently,,
1362,condition1,0.96,NA,2,filler_good_1,Hanako said: Danny didn't believe that Jennifer got a <strong>CAT</strong>.,105,NA,21111,acceptability,15,believe,,
1362,condition1,NA,verb,2,verb_focus,Hanako said: Emma didn't say <strong>QUIETLY</strong> that Kevin lost the keys.,2,The way Emma said that Kevin lost the keys.,18951,backgroundedness,16,quietly,,
1362,condition1,0.96,NA,2,filler_good_2,Hanako said: <strong>KATE</strong> didn't insist that Zack broke the plates.,109,NA,15813,acceptability,17,insist,,
1362,condition1,NA,embed,2,filler_bad_2,Hanako said: Frankie didn't hope that the agent of the <strong>GUITARIST</strong> would show up. ,120,"Whose agent would show up, according to Frankie.",31778,backgroundedness,18,hope,,
1362,condition1,0.31,NA,3,filler_good_1,Hanako said: Charlie didn't expect that Maddie would call her <strong>ROOMMATE</strong>.,106,NA,8786,acceptability,19,expect,,
1362,condition1,NA,verb,3,embed_focus,Hanako said: Fatima didn't say ruefully that Omar had dinner with his <strong>MANAGER</strong>.,10,The way Fatima said that Omar had dinner with his manager.,25666,backgroundedness,20,ruefully,,
1362,condition1,0.97,NA,3,filler_good_2,Hanako said: <strong>RONALD</strong> didn't imply that Jacy rented the truck.,107,NA,11406,acceptability,21,imply,,
1362,condition1,0.73,NA,3,filler_bad_1,Hanako said: Ben didn't expect that Judith and <strong>LAURA</strong> would order pizza.,118,NA,162135,acceptability,22,expect,,
1362,condition1,NA,verb,3,filler_bad_2,Hanako said: Jessie didn't guess that the assistant to the <strong>DIRECTOR</strong> would give the presentation.,122,"What the assistant to the director would do, according to Jessie.",53692,backgroundedness,23,guess,,
1362,condition1,NA,verb,3,verb_focus,Hanako said: Igor didn't say <strong>CALMLY</strong> that Penny won the lottery.,11,The way Igor said that Penny won the lottery.,42120,backgroundedness,24,calmly,,
1362,condition1,NA,verb,4,verb_focus,Hanako said: Howard didn't say <strong>LOUDLY</strong> that Alex bought a birthday cake.,3,The way Howard said that Alex bought a birthday cake.,10538,backgroundedness,25,loudly,,
1362,condition1,0.02,NA,4,filler_bad_1,Hanako said: Tony didn't suggest that Frank and <strong>LISA</strong> were in the office.,116,NA,19739,acceptability,26,suggest,,
1362,condition1,0.8,NA,4,filler_good_1,Hanako said: Hannah didn't say that George emailed the <strong>STUDENTS</strong>.,101,NA,26755,acceptability,27,say,,
1362,condition1,0.04,NA,4,filler_good_2,Hanako said: <strong>MATTHEW</strong> didn't hope that Dana brought a gift.,108,NA,11414,acceptability,28,hope,,
1362,condition1,NA,verb,4,filler_bad_2,Hanako said: Jamal didn't expect that the book about <strong>ASTRONOMY</strong> was on the shelf.,124,"Where the book about astronomy was, according to Jamal.",15656,backgroundedness,29,expect,,
1362,condition1,NA,verb,4,embed_focus,Hanako said: Chandler didn't say dryly that Tia brought her <strong>PARENTS</strong>.,12,The way Chandler said that Tia brought her parents.,26764,backgroundedness,30,dryly,,
1362,condition1,NA,verb,5,verb_focus,Hanako said: Yash didn't say <strong>WISTFULLY</strong> that Ming forgot her phone.,9,The way Yash said that Ming forgot her phone.,25824,backgroundedness,31,wistfully,,
1362,condition1,NA,embed,5,filler_good_1,Hanako said: Ollie didn't think that Doug would invite the <strong>MAYOR</strong>.,102,"Who Doug would invite, according to Ollie.",9401,backgroundedness,32,think,,
1362,condition1,0.92,NA,5,filler_good_2,Hanako said: <strong>SALLY</strong> didn't expect that Tony would visit George.,112,NA,12973,acceptability,33,expect,,
1362,condition1,NA,verb,5,embed_focus,Hanako said: Laura didn't say bluntly that Brandon broke his <strong>LAPTOP</strong>.,4,The way Laura said that Brandon broke his laptop.,11109,backgroundedness,34,bluntly,,
1362,condition1,0.97,NA,5,filler_bad_1,Hanako said: Helen didn't think that Rob and <strong>MARC</strong> cut the bread. ,114,NA,11394,acceptability,35,think,,
1362,condition1,0.82,NA,5,filler_bad_2,Hanako said: Ted didn't insist that <strong>EVA</strong>'s uncle should stay for dinner. ,121,NA,21189,acceptability,36,insist,,
1401,condition1,0.98,NA,practice,practice_acceptability_good_1,Hanako said: Fiona didn't buy <strong>PINEAPPLES</strong>.,201,,,acceptability,0,NA,0,
1401,condition1,NA,correct,practice,practice_bg_good_2,Hanako said: Vera didn't <strong>DRIVE</strong> to Michigan.,202,How Vera travelled to Michigan.,,backgroundedness,0,NA,,
1401,condition1,0,NA,practice,practice_accpetability_bad_2,Hanako said: Prisha doesn't speak <strong>KOREAN</strong>.,204,,,acceptability,0,NA,1,
1401,condition1,NA,correct,practice,practice_bg_bad_1,Hanako said: Hank didn't buy the <strong>RED</strong> car.,203,Which car Hank bought.,,backgroundedness,0,NA,,
1401,condition1,NA,embed,0,filler_bad_2,Hanako said: Ted didn't insist that <strong>EVA</strong>'s uncle should stay for dinner. ,121,"Whose uncle should stay for dinner, according to Ted.",15238,backgroundedness,1,insist,,
1401,condition1,NA,verb,0,verb_focus,Hanako said: John didn't say <strong>SOFTLY</strong> that Mary met with the lawyer.,1,The way John said that Mary met with the lawyer.,17432,backgroundedness,2,softly,,
1401,condition1,0.04,NA,0,filler_bad_1,Hanako said: Ben didn't expect that Judith and <strong>LAURA</strong> would order pizza.,118,NA,25527,acceptability,3,expect,,
1401,condition1,0.99,NA,0,filler_good_2,Hanako said: <strong>MATTHEW</strong> didn't hope that Dana brought a gift.,108,NA,8718,acceptability,4,hope,,
1401,condition1,NA,embed,0,filler_good_1,Hanako said: Nancy didn't suspect that Julian ate the <strong> CUPCAKE</strong>.,103,"What Julian ate, according to Nancy.",8196,backgroundedness,5,suspect,,
1401,condition1,0.69,NA,0,embed_focus,Hanako said: Emma didn't say quietly that Kevin lost the <strong>KEYS</strong>.,2,NA,10267,acceptability,6,quietly,,
1401,condition1,NA,embed,1,filler_bad_2,Hanako said: Jessie didn't guess that the assistant to the <strong>DIRECTOR</strong> would give the presentation.,122,"Whose assistant would give the presentation, according to Jessie.",14455,backgroundedness,7,guess,,
1401,condition1,0.97,NA,1,filler_good_2,Hanako said: <strong>SALLY</strong> didn't expect that Tony would visit George.,112,NA,8832,acceptability,8,expect,,
1401,condition1,NA,embed,1,filler_good_1,Hanako said: Hannah didn't say that George emailed the <strong>STUDENTS</strong>.,101,"Who George emailed, according to Hannah.",15777,backgroundedness,9,say,,
1401,condition1,0.75,NA,1,verb_focus,Hanako said: Igor didn't say <strong>CALMLY</strong> that Penny won the lottery.,11,NA,6788,acceptability,10,calmly,,
1401,condition1,0.69,NA,1,embed_focus,Hanako said: Fatima didn't say ruefully that Omar had dinner with his <strong>MANAGER</strong>.,10,NA,12022,acceptability,11,ruefully,,
1401,condition1,NA,embed,1,filler_bad_1,Hanako said: Helen didn't think that Rob and <strong>MARC</strong> cut the bread. ,114,"Who else cut the bread other than Rob, according to Helen.",7381,backgroundedness,12,think,,
1401,condition1,0.62,NA,2,filler_bad_2,Hanako said: Rui didn't imply that <strong>CAROL</strong>'s brother signed the contract.,119,NA,19844,acceptability,13,imply,,
1401,condition1,0.27,NA,2,verb_focus,Hanako said: Laura didn't say <strong>BLUNTLY</strong> that Brandon broke his laptop.,4,NA,10649,acceptability,14,bluntly,,
1401,condition1,NA,embed,2,filler_good_1,Hanako said: Ollie didn't think that Doug would invite the <strong>MAYOR</strong>.,102,"Who Doug would invite, according to Ollie.",8927,backgroundedness,15,think,,
1401,condition1,NA,embed,2,filler_good_2,Hanako said: <strong>JESS</strong> didn't reveal that Todd went out with Betty.,111,Who revealed that Todd went out with Betty.,9121,backgroundedness,16,reveal,,
1401,condition1,NA,embed,2,embed_focus,Hanako said: Bill didn't say cheerfully that Dan knew the <strong>PROFESSOR</strong>.,5,"Who Dan knew, according to Bill.",13590,backgroundedness,17,cheerfully,,
1401,condition1,0.19,NA,2,filler_bad_1,Hanako said: Emily didn't say that Kevin and <strong>PAUL</strong> drafted the letter.,113,NA,15149,acceptability,18,say,,
1401,condition1,NA,embed,3,filler_good_1,Hanako said: Danny didn't believe that Jennifer got a <strong>CAT</strong>.,105,"What Jennifer got, according to Danny.",7563,backgroundedness,19,believe,,
1401,condition1,NA,embed,3,filler_bad_1,Hanako said: Larry didn't believe that Karl and <strong>NICK</strong> cooked dinner.,117,"Who else cooked dinner other than Karl, according to Larry.",8844,backgroundedness,20,believe,,
1401,condition1,0.95,NA,3,filler_good_2,Hanako said: <strong>RONALD</strong> didn't imply that Jacy rented the truck.,107,NA,10162,acceptability,21,imply,,
1401,condition1,0.49,NA,3,filler_bad_2,Hanako said: Jamal didn't expect that the book about <strong>ASTRONOMY</strong> was on the shelf.,124,NA,13930,acceptability,22,expect,,
1401,condition1,NA,embed,3,embed_focus,Hanako said: Howard didn't say loudly that Alex bought a <strong>BIRTHDAY CAKE</strong>.,3,"What Alex bought, according to Howard.",13748,backgroundedness,23,loudly,,
1401,condition1,0.12,NA,3,verb_focus,Hanako said: Jake didn't say <strong>STERNLY</strong> that Yumi found the wallet.,7,NA,7224,acceptability,24,sternly,,
1401,condition1,NA,embed,4,filler_bad_1,Hanako said: Tim didn't suspect that Liz and <strong>JASON</strong> drank the beer. ,115,"Who else drank the beer other than Liz, according to Tim.",10058,backgroundedness,25,suspect,,
1401,condition1,NA,verb,4,verb_focus,Hanako said: Ashley didn't say <strong>GENTLY</strong> that Hasan talked to the detectives.,8,The way Ashley said that Hasan talked to the detectives.,7208,backgroundedness,26,gently,,
1401,condition1,NA,embed,4,filler_bad_2,Hanako said: Donald didn't reveal that <strong>KRISHNA</strong>'s parents were moving to Texas.,123,"Whose parents were moving to Texas, according to Donald.",8504,backgroundedness,27,reveal,,
1401,condition1,0.67,NA,4,embed_focus,Hanako said: Chandler didn't say dryly that Tia brought her <strong>PARENTS</strong>.,12,NA,10427,acceptability,28,dryly,,
1401,condition1,0.93,NA,4,filler_good_1,Hanako said: Grace didn't suggest that Karen wrote a <strong>BOOK</strong>.,104,NA,12798,acceptability,29,suggest,,
1401,condition1,0.81,NA,4,filler_good_2,Hanako said: <strong>KATE</strong> didn't insist that Zack broke the plates.,109,NA,4383,acceptability,30,insist,,
1401,condition1,0.98,NA,5,filler_good_1,Hanako said: Charlie didn't expect that Maddie would call her <strong>ROOMMATE</strong>.,106,NA,8595,acceptability,31,expect,,
1401,condition1,NA,verb,5,verb_focus,Hanako said: Amy didn't say <strong>WEARILY</strong> that Charlie saw the robber.,6,The way Amy said that Charlie saw the robber.,31105,backgroundedness,32,wearily,,
1401,condition1,0.54,NA,5,filler_bad_2,Hanako said: Frankie didn't hope that the agent of the <strong>GUITARIST</strong> would show up. ,120,NA,12420,acceptability,33,hope,,
1401,condition1,NA,embed,5,embed_focus,Hanako said: Yash didn't say wistfully that Ming forgot her <strong>PHONE</strong>.,9,"What Ming forgot, according to Yash.",8127,backgroundedness,34,wistfully,,
1401,condition1,NA,embed,5,filler_bad_1,Hanako said: Tony didn't suggest that Frank and <strong>LISA</strong> were in the office.,116,"Who else was in the office other than Frank, according to Tony.",7515,backgroundedness,35,suggest,,
1401,condition1,0.93,NA,5,filler_good_2,Hanako said: <strong>JULIAN</strong> didn't guess that Charlie received a message.,110,NA,9136,acceptability,36,guess,,
1404,condition1,0.97,NA,practice,practice_acceptability_good_1,Hanako said: Fiona didn't buy <strong>PINEAPPLES</strong>.,201,,,acceptability,0,NA,0,
1404,condition1,NA,correct,practice,practice_bg_good_2,Hanako said: Vera didn't <strong>DRIVE</strong> to Michigan.,202,How Vera travelled to Michigan.,,backgroundedness,0,NA,,
1404,condition1,0.01,NA,practice,practice_accpetability_bad_2,Hanako said: Prisha doesn't speak <strong>KOREAN</strong>.,204,,,acceptability,0,NA,0,
1404,condition1,NA,correct,practice,practice_bg_bad_1,Hanako said: Hank didn't buy the <strong>RED</strong> car.,203,Which car Hank bought.,,backgroundedness,0,NA,,
1404,condition1,0.41,NA,0,filler_bad_1,Hanako said: Tony didn't suggest that Frank and <strong>LISA</strong> were in the office.,116,NA,26809,acceptability,1,suggest,,
1404,condition1,NA,embed,0,filler_bad_2,Hanako said: Jessie didn't guess that the assistant to the <strong>DIRECTOR</strong> would give the presentation.,122,"Whose assistant would give the presentation, according to Jessie.",40008,backgroundedness,2,guess,,
1404,condition1,0.38,NA,0,verb_focus,Hanako said: John didn't say <strong>SOFTLY</strong> that Mary met with the lawyer.,1,NA,38506,acceptability,3,softly,,
1404,condition1,NA,verb,0,filler_good_2,Hanako said: <strong>SALLY</strong> didn't expect that Tony would visit George.,112,"Who Tony would visit, according to Sally.",43116,backgroundedness,4,expect,,
1404,condition1,NA,embed,0,filler_good_1,Hanako said: Charlie didn't expect that Maddie would call her <strong>ROOMMATE</strong>.,106,"Who Maddie would call, according to Charlie.",79213,backgroundedness,5,expect,,
1404,condition1,0.86,NA,0,embed_focus,Hanako said: Amy didn't say wearily that Charlie saw the <strong>ROBBER</strong>.,6,NA,36590,acceptability,6,wearily,,
1404,condition1,NA,embed,1,filler_bad_2,Hanako said: Jamal didn't expect that the book about <strong>ASTRONOMY</strong> was on the shelf.,124,"Which book was on the shelf, according to Jamal.",31779,backgroundedness,7,expect,,
1404,condition1,NA,verb,1,filler_good_1,Hanako said: Nancy didn't suspect that Julian ate the <strong> CUPCAKE</strong>.,103,"Who ate the cupcake, according to Nancy.",47082,backgroundedness,8,suspect,,
1404,condition1,NA,verb,1,verb_focus,Hanako said: Jake didn't say <strong>STERNLY</strong> that Yumi found the wallet.,7,The way Jake said that Yumi found the wallet.,33605,backgroundedness,9,sternly,,
1404,condition1,0.41,NA,1,filler_bad_1,Hanako said: Larry didn't believe that Karl and <strong>NICK</strong> cooked dinner.,117,NA,39271,acceptability,10,believe,,
1404,condition1,0.97,NA,1,filler_good_2,Hanako said: <strong>RONALD</strong> didn't imply that Jacy rented the truck.,107,NA,23017,acceptability,11,imply,,
1404,condition1,0.67,NA,1,embed_focus,Hanako said: Chandler didn't say dryly that Tia brought her <strong>PARENTS</strong>.,12,NA,38339,acceptability,12,dryly,,
1404,condition1,0.7,NA,2,embed_focus,Hanako said: Yash didn't say wistfully that Ming forgot her <strong>PHONE</strong>.,9,NA,20036,acceptability,13,wistfully,,
1404,condition1,NA,embed,2,filler_bad_2,Hanako said: Rui didn't imply that <strong>CAROL</strong>'s brother signed the contract.,119,"Whose brother signed the contract, according to Rui.",44342,backgroundedness,14,imply,,
1404,condition1,1,NA,2,filler_good_2,Hanako said: <strong>JULIAN</strong> didn't guess that Charlie received a message.,110,NA,38004,acceptability,15,guess,,
1404,condition1,NA,verb,2,verb_focus,Hanako said: Emma didn't say <strong>QUIETLY</strong> that Kevin lost the keys.,2,The way Emma said that Kevin lost the keys.,26421,backgroundedness,16,quietly,,
1404,condition1,0.98,NA,2,filler_good_1,Hanako said: Grace didn't suggest that Karen wrote a <strong>BOOK</strong>.,104,NA,12811,acceptability,17,suggest,,
1404,condition1,NA,embed,2,filler_bad_1,Hanako said: Ben didn't expect that Judith and <strong>LAURA</strong> would order pizza.,118,"Who else would order pizza other than Judith, according to Ben.",26568,backgroundedness,18,expect,,
1404,condition1,0.6,NA,3,filler_bad_2,Hanako said: Frankie didn't hope that the agent of the <strong>GUITARIST</strong> would show up. ,120,NA,23903,acceptability,19,hope,,
1404,condition1,NA,embed,3,filler_bad_1,Hanako said: Emily didn't say that Kevin and <strong>PAUL</strong> drafted the letter.,113,"Who else drafted the letter other than Kevin, according to Emily.",41880,backgroundedness,20,say,,
1404,condition1,1,NA,3,filler_good_2,Hanako said: <strong>MATTHEW</strong> didn't hope that Dana brought a gift.,108,NA,16435,acceptability,21,hope,,
1404,condition1,NA,verb,3,verb_focus,Hanako said: Igor didn't say <strong>CALMLY</strong> that Penny won the lottery.,11,The way Igor said that Penny won the lottery.,30317,backgroundedness,22,calmly,,
1404,condition1,0.85,NA,3,embed_focus,Hanako said: Fatima didn't say ruefully that Omar had dinner with his <strong>MANAGER</strong>.,10,NA,24690,acceptability,23,ruefully,,
1404,condition1,NA,embed,3,filler_good_1,Hanako said: Hannah didn't say that George emailed the <strong>STUDENTS</strong>.,101,"Who George emailed, according to Hannah.",40807,backgroundedness,24,say,,
1404,condition1,0.99,NA,4,filler_good_1,Hanako said: Ollie didn't think that Doug would invite the <strong>MAYOR</strong>.,102,NA,39573,acceptability,25,think,,
1404,condition1,NA,embed,4,filler_bad_2,Hanako said: Ted didn't insist that <strong>EVA</strong>'s uncle should stay for dinner. ,121,"Whose uncle should stay for dinner, according to Ted.",27785,backgroundedness,26,insist,,
1404,condition1,NA,embed,4,filler_good_2,Hanako said: <strong>KATE</strong> didn't insist that Zack broke the plates.,109,Who insisted that Zack broke the plates.,18591,backgroundedness,27,insist,,
1404,condition1,NA,embed,4,filler_bad_1,Hanako said: Helen didn't think that Rob and <strong>MARC</strong> cut the bread. ,114,"Who else cut the bread other than Rob, according to Helen.",25390,backgroundedness,28,think,,
1404,condition1,1,NA,4,verb_focus,Hanako said: Laura didn't say <strong>BLUNTLY</strong> that Brandon broke his laptop.,4,NA,17948,acceptability,29,bluntly,,
1404,condition1,0.53,NA,4,embed_focus,Hanako said: Ashley didn't say gently that Hasan talked to the <strong>DETECTIVES</strong>.,8,NA,29365,acceptability,30,gently,,
1404,condition1,0.39,NA,5,filler_bad_1,Hanako said: Tim didn't suspect that Liz and <strong>JASON</strong> drank the beer. ,115,NA,21189,acceptability,31,suspect,,
1404,condition1,NA,verb,5,verb_focus,Hanako said: Howard didn't say <strong>LOUDLY</strong> that Alex bought a birthday cake.,3,The way Howard said that Alex bought a birthday cake.,16922,backgroundedness,32,loudly,,
1404,condition1,0.78,NA,5,embed_focus,Hanako said: Bill didn't say cheerfully that Dan knew the <strong>PROFESSOR</strong>.,5,NA,47340,acceptability,33,cheerfully,,
1404,condition1,NA,embed,5,filler_good_1,Hanako said: Danny didn't believe that Jennifer got a <strong>CAT</strong>.,105,"What Jennifer got, according to Danny.",20226,backgroundedness,34,believe,,
1404,condition1,NA,embed,5,filler_good_2,Hanako said: <strong>JESS</strong> didn't reveal that Todd went out with Betty.,111,Who revealed that Todd went out with Betty.,16326,backgroundedness,35,reveal,,
1404,condition1,0.42,NA,5,filler_bad_2,Hanako said: Donald didn't reveal that <strong>KRISHNA</strong>'s parents were moving to Texas.,123,NA,24921,acceptability,36,reveal,,
1407,condition1,1,NA,practice,practice_acceptability_good_1,Hanako said: Fiona didn't buy <strong>PINEAPPLES</strong>.,201,,,acceptability,0,NA,0,
1407,condition1,NA,correct,practice,practice_bg_good_2,Hanako said: Vera didn't <strong>DRIVE</strong> to Michigan.,202,How Vera travelled to Michigan.,,backgroundedness,0,NA,,
1407,condition1,0,NA,practice,practice_accpetability_bad_2,Hanako said: Prisha doesn't speak <strong>KOREAN</strong>.,204,,,acceptability,0,NA,0,
1407,condition1,NA,correct,practice,practice_bg_bad_1,Hanako said: Hank didn't buy the <strong>RED</strong> car.,203,Which car Hank bought.,,backgroundedness,0,NA,,
1407,condition1,NA,embed,0,filler_good_2,Hanako said: <strong>RONALD</strong> didn't imply that Jacy rented the truck.,107,Who implied that Jacy rented the truck.,8283,backgroundedness,1,imply,,
1407,condition1,0,NA,0,filler_bad_1,Hanako said: Helen didn't think that Rob and <strong>MARC</strong> cut the bread. ,114,NA,12331,acceptability,2,think,,
1407,condition1,NA,verb,0,verb_focus,Hanako said: Igor didn't say <strong>CALMLY</strong> that Penny won the lottery.,11,The way Igor said that Penny won the lottery.,6697,backgroundedness,3,calmly,,
1407,condition1,1,NA,0,embed_focus,Hanako said: Bill didn't say cheerfully that Dan knew the <strong>PROFESSOR</strong>.,5,NA,9216,acceptability,4,cheerfully,,
1407,condition1,NA,embed,0,filler_bad_2,Hanako said: Frankie didn't hope that the agent of the <strong>GUITARIST</strong> would show up. ,120,"Whose agent would show up, according to Frankie.",8661,backgroundedness,5,hope,,
1407,condition1,1,NA,0,filler_good_1,Hanako said: Nancy didn't suspect that Julian ate the <strong> CUPCAKE</strong>.,103,NA,6741,acceptability,6,suspect,,
1407,condition1,NA,verb,1,verb_focus,Hanako said: Chandler didn't say <strong>DRYLY</strong> that Tia brought her parents.,12,The way Chandler said that Tia brought her parents.,9549,backgroundedness,7,dryly,,
1407,condition1,0,NA,1,filler_bad_2,Hanako said: Jamal didn't expect that the book about <strong>ASTRONOMY</strong> was on the shelf.,124,NA,10198,acceptability,8,expect,,
1407,condition1,NA,embed,1,filler_good_1,Hanako said: Ollie didn't think that Doug would invite the <strong>MAYOR</strong>.,102,"Who Doug would invite, according to Ollie.",5416,backgroundedness,9,think,,
1407,condition1,NA,embed,1,embed_focus,Hanako said: Yash didn't say wistfully that Ming forgot her <strong>PHONE</strong>.,9,"What Ming forgot, according to Yash.",6282,backgroundedness,10,wistfully,,
1407,condition1,1,NA,1,filler_good_2,Hanako said: <strong>KATE</strong> didn't insist that Zack broke the plates.,109,NA,4213,acceptability,11,insist,,
1407,condition1,0.01,NA,1,filler_bad_1,Hanako said: Tony didn't suggest that Frank and <strong>LISA</strong> were in the office.,116,NA,39277,acceptability,12,suggest,,
1407,condition1,0,NA,2,filler_bad_1,Hanako said: Emily didn't say that Kevin and <strong>PAUL</strong> drafted the letter.,113,NA,6675,acceptability,13,say,,
1407,condition1,0,NA,2,verb_focus,Hanako said: Laura didn't say <strong>BLUNTLY</strong> that Brandon broke his laptop.,4,NA,9389,acceptability,14,bluntly,,
1407,condition1,NA,embed,2,filler_good_2,Hanako said: <strong>JULIAN</strong> didn't guess that Charlie received a message.,110,Who guessed that Charlie received a message.,5288,backgroundedness,15,guess,,
1407,condition1,0,NA,2,filler_bad_2,Hanako said: Donald didn't reveal that <strong>KRISHNA</strong>'s parents were moving to Texas.,123,NA,6797,acceptability,16,reveal,,
1407,condition1,NA,embed,2,embed_focus,Hanako said: Amy didn't say wearily that Charlie saw the <strong>ROBBER</strong>.,6,"Who Charlie saw, according to Amy.",10961,backgroundedness,17,wearily,,
1407,condition1,NA,embed,2,filler_good_1,Hanako said: Hannah didn't say that George emailed the <strong>STUDENTS</strong>.,101,"Who George emailed, according to Hannah.",6018,backgroundedness,18,say,,
1407,condition1,NA,embed,3,filler_good_2,Hanako said: <strong>MATTHEW</strong> didn't hope that Dana brought a gift.,108,Who hoped that Dana brought a gift.,4626,backgroundedness,19,hope,,
1407,condition1,0,NA,3,filler_bad_1,Hanako said: Tim didn't suspect that Liz and <strong>JASON</strong> drank the beer. ,115,NA,7009,acceptability,20,suspect,,
1407,condition1,1,NA,3,embed_focus,Hanako said: Jake didn't say sternly that Yumi found the <strong>WALLET</strong>.,7,NA,4600,acceptability,21,sternly,,
1407,condition1,NA,embed,3,filler_bad_2,Hanako said: Ted didn't insist that <strong>EVA</strong>'s uncle should stay for dinner. ,121,"Whose uncle should stay for dinner, according to Ted.",11114,backgroundedness,22,insist,,
1407,condition1,0,NA,3,verb_focus,Hanako said: Fatima didn't say <strong>RUEFULLY</strong> that Omar had dinner with his manager.,10,NA,11165,acceptability,23,ruefully,,
1407,condition1,NA,embed,3,filler_good_1,Hanako said: Grace didn't suggest that Karen wrote a <strong>BOOK</strong>.,104,"What Karen wrote, according to Grace.",13539,backgroundedness,24,suggest,,
1407,condition1,NA,embed,4,filler_good_1,Hanako said: Danny didn't believe that Jennifer got a <strong>CAT</strong>.,105,"What Jennifer got, according to Danny.",5618,backgroundedness,25,believe,,
1407,condition1,NA,verb,4,verb_focus,Hanako said: Ashley didn't say <strong>GENTLY</strong> that Hasan talked to the detectives.,8,The way Ashley said that Hasan talked to the detectives.,9871,backgroundedness,26,gently,,
1407,condition1,NA,embed,4,filler_bad_2,Hanako said: Jessie didn't guess that the assistant to the <strong>DIRECTOR</strong> would give the presentation.,122,"Whose assistant would give the presentation, according to Jessie.",8962,backgroundedness,27,guess,,
1407,condition1,0,NA,4,filler_bad_1,Hanako said: Larry didn't believe that Karl and <strong>NICK</strong> cooked dinner.,117,NA,19321,acceptability,28,believe,,
1407,condition1,0.67,NA,4,embed_focus,Hanako said: John didn't say softly that Mary met with the <strong>LAWYER</strong>.,1,NA,10470,acceptability,29,softly,,
1407,condition1,1,NA,4,filler_good_2,Hanako said: <strong>JESS</strong> didn't reveal that Todd went out with Betty.,111,NA,4320,acceptability,30,reveal,,
1407,condition1,1,NA,5,filler_good_2,Hanako said: <strong>SALLY</strong> didn't expect that Tony would visit George.,112,NA,4739,acceptability,31,expect,,
1407,condition1,NA,verb,5,verb_focus,Hanako said: Emma didn't say <strong>QUIETLY</strong> that Kevin lost the keys.,2,The way Emma said that Kevin lost the keys.,3337,backgroundedness,32,quietly,,
1407,condition1,NA,embed,5,embed_focus,Hanako said: Howard didn't say loudly that Alex bought a <strong>BIRTHDAY CAKE</strong>.,3,"What Alex bought, according to Howard.",4312,backgroundedness,33,loudly,,
1407,condition1,NA,embed,5,filler_good_1,Hanako said: Charlie didn't expect that Maddie would call her <strong>ROOMMATE</strong>.,106,"Who Maddie would call, according to Charlie.",13888,backgroundedness,34,expect,,
1407,condition1,0,NA,5,filler_bad_1,Hanako said: Ben didn't expect that Judith and <strong>LAURA</strong> would order pizza.,118,NA,5062,acceptability,35,expect,,
1407,condition1,0,NA,5,filler_bad_2,Hanako said: Rui didn't imply that <strong>CAROL</strong>'s brother signed the contract.,119,NA,4439,acceptability,36,imply,,
1416,condition1,0.98,NA,practice,practice_acceptability_good_1,Hanako said: Fiona didn't buy <strong>PINEAPPLES</strong>.,201,,,acceptability,0,NA,0,
1416,condition1,NA,correct,practice,practice_bg_good_2,Hanako said: Vera didn't <strong>DRIVE</strong> to Michigan.,202,How Vera travelled to Michigan.,,backgroundedness,0,NA,,
1416,condition1,0.01,NA,practice,practice_accpetability_bad_2,Hanako said: Prisha doesn't speak <strong>KOREAN</strong>.,204,,,acceptability,0,NA,0,
1416,condition1,NA,correct,practice,practice_bg_bad_1,Hanako said: Hank didn't buy the <strong>RED</strong> car.,203,Which car Hank bought.,,backgroundedness,0,NA,,
1416,condition1,0.47,NA,0,verb_focus,Hanako said: Bill didn't say <strong>CHEERFULLY</strong> that Dan knew the professor.,5,NA,18879,acceptability,1,cheerfully,,
1416,condition1,NA,embed,0,filler_good_2,Hanako said: <strong>KATE</strong> didn't insist that Zack broke the plates.,109,Who insisted that Zack broke the plates.,16987,backgroundedness,2,insist,,
1416,condition1,0.11,NA,0,filler_bad_2,Hanako said: Rui didn't imply that <strong>CAROL</strong>'s brother signed the contract.,119,NA,17510,acceptability,3,imply,,
1416,condition1,NA,embed,0,embed_focus,Hanako said: Chandler didn't say dryly that Tia brought her <strong>PARENTS</strong>.,12,"Who Tia brought, according to Chandler.",15454,backgroundedness,4,dryly,,
1416,condition1,NA,embed,0,filler_good_1,Hanako said: Ollie didn't think that Doug would invite the <strong>MAYOR</strong>.,102,"Who Doug would invite, according to Ollie.",28628,backgroundedness,5,think,,
1416,condition1,0,NA,0,filler_bad_1,Hanako said: Tony didn't suggest that Frank and <strong>LISA</strong> were in the office.,116,NA,20691,acceptability,6,suggest,,
1416,condition1,NA,embed,1,filler_bad_1,Hanako said: Emily didn't say that Kevin and <strong>PAUL</strong> drafted the letter.,113,"Who else drafted the letter other than Kevin, according to Emily.",18414,backgroundedness,7,say,,
1416,condition1,0.98,NA,1,verb_focus,Hanako said: Howard didn't say <strong>LOUDLY</strong> that Alex bought a birthday cake.,3,NA,10275,acceptability,8,loudly,,
1416,condition1,0.98,NA,1,embed_focus,Hanako said: Igor didn't say calmly that Penny won the <strong>LOTTERY</strong>.,11,NA,7525,acceptability,9,calmly,,
1416,condition1,0.99,NA,1,filler_good_2,Hanako said: <strong>SALLY</strong> didn't expect that Tony would visit George.,112,NA,9645,acceptability,10,expect,,
1416,condition1,NA,embed,1,filler_bad_2,Hanako said: Frankie didn't hope that the agent of the <strong>GUITARIST</strong> would show up. ,120,"Whose agent would show up, according to Frankie.",15865,backgroundedness,11,hope,,
1416,condition1,NA,embed,1,filler_good_1,Hanako said: Hannah didn't say that George emailed the <strong>STUDENTS</strong>.,101,"Who George emailed, according to Hannah.",10955,backgroundedness,12,say,,
1416,condition1,0.98,NA,2,verb_focus,Hanako said: John didn't say <strong>SOFTLY</strong> that Mary met with the lawyer.,1,NA,11374,acceptability,13,softly,,
1416,condition1,1,NA,2,filler_good_1,Hanako said: Danny didn't believe that Jennifer got a <strong>CAT</strong>.,105,NA,7518,acceptability,14,believe,,
1416,condition1,NA,embed,2,embed_focus,Hanako said: Laura didn't say bluntly that Brandon broke his <strong>LAPTOP</strong>.,4,"What Brandon broke, according to Laura.",12894,backgroundedness,15,bluntly,,
1416,condition1,0.99,NA,2,filler_good_2,Hanako said: <strong>RONALD</strong> didn't imply that Jacy rented the truck.,107,NA,7725,acceptability,16,imply,,
1416,condition1,NA,embed,2,filler_bad_1,Hanako said: Larry didn't believe that Karl and <strong>NICK</strong> cooked dinner.,117,"Who else cooked dinner other than Karl, according to Larry.",17254,backgroundedness,17,believe,,
1416,condition1,NA,embed,2,filler_bad_2,Hanako said: Donald didn't reveal that <strong>KRISHNA</strong>'s parents were moving to Texas.,123,"Whose parents were moving to Texas, according to Donald.",12368,backgroundedness,18,reveal,,
1416,condition1,NA,embed,3,filler_good_1,Hanako said: Grace didn't suggest that Karen wrote a <strong>BOOK</strong>.,104,"What Karen wrote, according to Grace.",8456,backgroundedness,19,suggest,,
1416,condition1,0.98,NA,3,verb_focus,Hanako said: Jake didn't say <strong>STERNLY</strong> that Yumi found the wallet.,7,NA,9428,acceptability,20,sternly,,
1416,condition1,0.07,NA,3,filler_bad_2,Hanako said: Jamal didn't expect that the book about <strong>ASTRONOMY</strong> was on the shelf.,124,NA,15896,acceptability,21,expect,,
1416,condition1,NA,embed,3,filler_good_2,Hanako said: <strong>MATTHEW</strong> didn't hope that Dana brought a gift.,108,Who hoped that Dana brought a gift.,9813,backgroundedness,22,hope,,
1416,condition1,NA,embed,3,embed_focus,Hanako said: Yash didn't say wistfully that Ming forgot her <strong>PHONE</strong>.,9,"What Ming forgot, according to Yash.",13386,backgroundedness,23,wistfully,,
1416,condition1,0.12,NA,3,filler_bad_1,Hanako said: Tim didn't suspect that Liz and <strong>JASON</strong> drank the beer. ,115,NA,11039,acceptability,24,suspect,,
1416,condition1,NA,embed,4,filler_bad_1,Hanako said: Helen didn't think that Rob and <strong>MARC</strong> cut the bread. ,114,"Who else cut the bread other than Rob, according to Helen.",11657,backgroundedness,25,think,,
1416,condition1,0.98,NA,4,filler_good_1,Hanako said: Charlie didn't expect that Maddie would call her <strong>ROOMMATE</strong>.,106,NA,7059,acceptability,26,expect,,
1416,condition1,0.99,NA,4,verb_focus,Hanako said: Fatima didn't say <strong>RUEFULLY</strong> that Omar had dinner with his manager.,10,NA,4795,acceptability,27,ruefully,,
1416,condition1,NA,embed,4,embed_focus,Hanako said: Emma didn't say quietly that Kevin lost the <strong>KEYS</strong>.,2,"What Kevin lost, according to Emma.",8774,backgroundedness,28,quietly,,
1416,condition1,NA,embed,4,filler_bad_2,Hanako said: Jessie didn't guess that the assistant to the <strong>DIRECTOR</strong> would give the presentation.,122,"Whose assistant would give the presentation, according to Jessie.",27395,backgroundedness,29,guess,,
1416,condition1,0.99,NA,4,filler_good_2,Hanako said: <strong>JESS</strong> didn't reveal that Todd went out with Betty.,111,NA,5643,acceptability,30,reveal,,
1416,condition1,NA,embed,5,filler_bad_1,Hanako said: Ben didn't expect that Judith and <strong>LAURA</strong> would order pizza.,118,"Who else would order pizza other than Judith, according to Ben.",16087,backgroundedness,31,expect,,
1416,condition1,NA,embed,5,verb_focus,Hanako said: Ashley didn't say <strong>GENTLY</strong> that Hasan talked to the detectives.,8,"Who Hasan talked to, according to Ashley.",13869,backgroundedness,32,gently,,
1416,condition1,0.99,NA,5,filler_good_2,Hanako said: <strong>JULIAN</strong> didn't guess that Charlie received a message.,110,NA,4858,acceptability,33,guess,,
1416,condition1,0.98,NA,5,embed_focus,Hanako said: Amy didn't say wearily that Charlie saw the <strong>ROBBER</strong>.,6,NA,5100,acceptability,34,wearily,,
1416,condition1,0.99,NA,5,filler_bad_2,Hanako said: Ted didn't insist that <strong>EVA</strong>'s uncle should stay for dinner. ,121,NA,7621,acceptability,35,insist,,
1416,condition1,NA,embed,5,filler_good_1,Hanako said: Nancy didn't suspect that Julian ate the <strong> CUPCAKE</strong>.,103,"What Julian ate, according to Nancy.",9620,backgroundedness,36,suspect,,
1334,condition1,0.98,NA,practice,practice_acceptability_good_1,Hanako said: Fiona didn't buy <strong>PINEAPPLES</strong>.,201,,,acceptability,0,NA,0,
1334,condition1,NA,correct,practice,practice_bg_good_2,Hanako said: Vera didn't <strong>DRIVE</strong> to Michigan.,202,How Vera travelled to Michigan.,,backgroundedness,0,NA,,
1334,condition1,0.03,NA,practice,practice_accpetability_bad_2,Hanako said: Prisha doesn't speak <strong>KOREAN</strong>.,204,,,acceptability,0,NA,0,
1334,condition1,NA,correct,practice,practice_bg_bad_1,Hanako said: Hank didn't buy the <strong>RED</strong> car.,203,Which car Hank bought.,,backgroundedness,0,NA,,
1334,condition1,NA,verb,0,filler_bad_2,Hanako said: Jamal didn't expect that the book about <strong>ASTRONOMY</strong> was on the shelf.,124,"Where the book about astronomy was, according to Jamal.",28547,backgroundedness,1,expect,,
1334,condition1,0.38,NA,0,verb_focus,Hanako said: Fatima didn't say <strong>RUEFULLY</strong> that Omar had dinner with his manager.,10,NA,19737,acceptability,2,ruefully,,
1334,condition1,NA,embed,0,filler_good_1,Hanako said: Grace didn't suggest that Karen wrote a <strong>BOOK</strong>.,104,"What Karen wrote, according to Grace.",20665,backgroundedness,3,suggest,,
1334,condition1,0.99,NA,0,filler_good_2,Hanako said: <strong>RONALD</strong> didn't imply that Jacy rented the truck.,107,NA,9527,acceptability,4,imply,,
1334,condition1,0.17,NA,0,embed_focus,Hanako said: Chandler didn't say dryly that Tia brought her <strong>PARENTS</strong>.,12,NA,16684,acceptability,5,dryly,,
1334,condition1,NA,embed,0,filler_bad_1,Hanako said: Tim didn't suspect that Liz and <strong>JASON</strong> drank the beer. ,115,"Who else drank the beer other than Liz, according to Tim.",22425,backgroundedness,6,suspect,,
1334,condition1,0,NA,1,filler_bad_2,Hanako said: Rui didn't imply that <strong>CAROL</strong>'s brother signed the contract.,119,NA,11294,acceptability,7,imply,,
1334,condition1,NA,embed,1,filler_good_2,Hanako said: <strong>JESS</strong> didn't reveal that Todd went out with Betty.,111,Who revealed that Todd went out with Betty.,16810,backgroundedness,8,reveal,,
1334,condition1,NA,verb,1,verb_focus,Hanako said: Ashley didn't say <strong>GENTLY</strong> that Hasan talked to the detectives.,8,The way Ashley said that Hasan talked to the detectives.,30746,backgroundedness,9,gently,,
1334,condition1,0.05,NA,1,filler_bad_1,Hanako said: Emily didn't say that Kevin and <strong>PAUL</strong> drafted the letter.,113,NA,11513,acceptability,10,say,,
1334,condition1,NA,embed,1,filler_good_1,Hanako said: Charlie didn't expect that Maddie would call her <strong>ROOMMATE</strong>.,106,"Who Maddie would call, according to Charlie.",24931,backgroundedness,11,expect,,
1334,condition1,0.74,NA,1,embed_focus,Hanako said: Yash didn't say wistfully that Ming forgot her <strong>PHONE</strong>.,9,NA,19928,acceptability,12,wistfully,,
1334,condition1,0.84,NA,2,embed_focus,Hanako said: Igor didn't say calmly that Penny won the <strong>LOTTERY</strong>.,11,NA,9824,acceptability,13,calmly,,
1334,condition1,NA,verb,2,filler_bad_2,Hanako said: Jessie didn't guess that the assistant to the <strong>DIRECTOR</strong> would give the presentation.,122,"What the assistant to the director would do, according to Jessie.",26550,backgroundedness,14,guess,,
1334,condition1,0.86,NA,2,verb_focus,Hanako said: Laura didn't say <strong>BLUNTLY</strong> that Brandon broke his laptop.,4,NA,11096,acceptability,15,bluntly,,
1334,condition1,NA,embed,2,filler_good_2,Hanako said: <strong>SALLY</strong> didn't expect that Tony would visit George.,112,Who expected that Tony would visit George.,26530,backgroundedness,16,expect,,
1334,condition1,0.02,NA,2,filler_bad_1,Hanako said: Tony didn't suggest that Frank and <strong>LISA</strong> were in the office.,116,NA,11579,acceptability,17,suggest,,
1334,condition1,NA,embed,2,filler_good_1,Hanako said: Ollie didn't think that Doug would invite the <strong>MAYOR</strong>.,102,"Who Doug would invite, according to Ollie.",16101,backgroundedness,18,think,,
1334,condition1,0.98,NA,3,filler_good_2,Hanako said: <strong>JULIAN</strong> didn't guess that Charlie received a message.,110,NA,10585,acceptability,19,guess,,
1334,condition1,NA,embed,3,filler_bad_1,Hanako said: Larry didn't believe that Karl and <strong>NICK</strong> cooked dinner.,117,"Who else cooked dinner other than Karl, according to Larry.",21723,backgroundedness,20,believe,,
1334,condition1,0.88,NA,3,verb_focus,Hanako said: Howard didn't say <strong>LOUDLY</strong> that Alex bought a birthday cake.,3,NA,12680,acceptability,21,loudly,,
1334,condition1,NA,embed,3,filler_bad_2,Hanako said: Donald didn't reveal that <strong>KRISHNA</strong>'s parents were moving to Texas.,123,"Whose parents were moving to Texas, according to Donald.",40510,backgroundedness,22,reveal,,
1334,condition1,NA,verb,3,filler_good_1,Hanako said: Nancy didn't suspect that Julian ate the <strong> CUPCAKE</strong>.,103,"Who ate the cupcake, according to Nancy.",18344,backgroundedness,23,suspect,,
1334,condition1,0.82,NA,3,embed_focus,Hanako said: John didn't say softly that Mary met with the <strong>LAWYER</strong>.,1,NA,9568,acceptability,24,softly,,
1334,condition1,0.81,NA,4,filler_bad_2,Hanako said: Frankie didn't hope that the agent of the <strong>GUITARIST</strong> would show up. ,120,NA,19182,acceptability,25,hope,,
1334,condition1,NA,verb,4,embed_focus,Hanako said: Jake didn't say sternly that Yumi found the <strong>WALLET</strong>.,7,The way Jake said that Yumi found the wallet.,28657,backgroundedness,26,sternly,,
1334,condition1,0.89,NA,4,verb_focus,Hanako said: Bill didn't say <strong>CHEERFULLY</strong> that Dan knew the professor.,5,NA,11409,acceptability,27,cheerfully,,
1334,condition1,NA,embed,4,filler_good_2,Hanako said: <strong>KATE</strong> didn't insist that Zack broke the plates.,109,Who insisted that Zack broke the plates.,23242,backgroundedness,28,insist,,
1334,condition1,NA,embed,4,filler_bad_1,Hanako said: Helen didn't think that Rob and <strong>MARC</strong> cut the bread. ,114,"Who else cut the bread other than Rob, according to Helen.",25344,backgroundedness,29,think,,
1334,condition1,0.62,NA,4,filler_good_1,Hanako said: Danny didn't believe that Jennifer got a <strong>CAT</strong>.,105,NA,9935,acceptability,30,believe,,
1334,condition1,0.59,NA,5,embed_focus,Hanako said: Amy didn't say wearily that Charlie saw the <strong>ROBBER</strong>.,6,NA,11556,acceptability,31,wearily,,
1334,condition1,NA,embed,5,filler_good_2,Hanako said: <strong>MATTHEW</strong> didn't hope that Dana brought a gift.,108,Who hoped that Dana brought a gift.,14627,backgroundedness,32,hope,,
1334,condition1,0.29,NA,5,filler_bad_2,Hanako said: Ted didn't insist that <strong>EVA</strong>'s uncle should stay for dinner. ,121,NA,8898,acceptability,33,insist,,
1334,condition1,NA,verb,5,verb_focus,Hanako said: Emma didn't say <strong>QUIETLY</strong> that Kevin lost the keys.,2,The way Emma said that Kevin lost the keys.,15060,backgroundedness,34,quietly,,
1334,condition1,NA,verb,5,filler_good_1,Hanako said: Hannah didn't say that George emailed the <strong>STUDENTS</strong>.,101,"Who emailed the students, according to Hannah.",16186,backgroundedness,35,say,,
1334,condition1,0.2,NA,5,filler_bad_1,Hanako said: Ben didn't expect that Judith and <strong>LAURA</strong> would order pizza.,118,NA,9819,acceptability,36,expect,,
1325,condition1,0.68,NA,practice,practice_acceptability_good_1,Hanako said: Fiona didn't buy <strong>PINEAPPLES</strong>.,201,,,acceptability,0,NA,0,
1325,condition1,NA,correct,practice,practice_bg_good_2,Hanako said: Vera didn't <strong>DRIVE</strong> to Michigan.,202,How Vera travelled to Michigan.,,backgroundedness,0,NA,,
1325,condition1,0.26,NA,practice,practice_accpetability_bad_2,Hanako said: Prisha doesn't speak <strong>KOREAN</strong>.,204,,,acceptability,0,NA,0,
1325,condition1,NA,correct,practice,practice_bg_bad_1,Hanako said: Hank didn't buy the <strong>RED</strong> car.,203,Which car Hank bought.,,backgroundedness,0,NA,,
1325,condition1,0.73,NA,0,embed_focus,Hanako said: Chandler didn't say dryly that Tia brought her <strong>PARENTS</strong>.,12,NA,12858,acceptability,1,dryly,,
1325,condition1,0.72,NA,0,filler_bad_2,Hanako said: Jamal didn't expect that the book about <strong>ASTRONOMY</strong> was on the shelf.,124,NA,10423,acceptability,2,expect,,
1325,condition1,NA,embed,0,filler_bad_1,Hanako said: Tim didn't suspect that Liz and <strong>JASON</strong> drank the beer. ,115,"Who else drank the beer other than Liz, according to Tim.",11433,backgroundedness,3,suspect,,
1325,condition1,0.76,NA,0,filler_good_1,Hanako said: Grace didn't suggest that Karen wrote a <strong>BOOK</strong>.,104,NA,11809,acceptability,4,suggest,,
1325,condition1,NA,embed,0,verb_focus,Hanako said: Ashley didn't say <strong>GENTLY</strong> that Hasan talked to the detectives.,8,"Who Hasan talked to, according to Ashley.",14984,backgroundedness,5,gently,,
1325,condition1,NA,embed,0,filler_good_2,Hanako said: <strong>JULIAN</strong> didn't guess that Charlie received a message.,110,Who guessed that Charlie received a message.,10001,backgroundedness,6,guess,,
1325,condition1,0.81,NA,1,filler_good_2,Hanako said: <strong>RONALD</strong> didn't imply that Jacy rented the truck.,107,NA,8051,acceptability,7,imply,,
1325,condition1,NA,embed,1,embed_focus,Hanako said: Amy didn't say wearily that Charlie saw the <strong>ROBBER</strong>.,6,"Who Charlie saw, according to Amy.",16042,backgroundedness,8,wearily,,
1325,condition1,NA,embed,1,filler_bad_2,Hanako said: Rui didn't imply that <strong>CAROL</strong>'s brother signed the contract.,119,"Whose brother signed the contract, according to Rui.",18817,backgroundedness,9,imply,,
1325,condition1,0.23,NA,1,filler_bad_1,Hanako said: Ben didn't expect that Judith and <strong>LAURA</strong> would order pizza.,118,NA,12440,acceptability,10,expect,,
1325,condition1,0.16,NA,1,verb_focus,Hanako said: Howard didn't say <strong>LOUDLY</strong> that Alex bought a birthday cake.,3,NA,10117,acceptability,11,loudly,,
1325,condition1,NA,verb,1,filler_good_1,Hanako said: Nancy didn't suspect that Julian ate the <strong> CUPCAKE</strong>.,103,"Who ate the cupcake, according to Nancy.",9452,backgroundedness,12,suspect,,
1325,condition1,0.84,NA,2,filler_good_1,Hanako said: Charlie didn't expect that Maddie would call her <strong>ROOMMATE</strong>.,106,NA,7670,acceptability,13,expect,,
1325,condition1,NA,embed,2,filler_good_2,Hanako said: <strong>MATTHEW</strong> didn't hope that Dana brought a gift.,108,Who hoped that Dana brought a gift.,9911,backgroundedness,14,hope,,
1325,condition1,0.22,NA,2,verb_focus,Hanako said: Bill didn't say <strong>CHEERFULLY</strong> that Dan knew the professor.,5,NA,11342,acceptability,15,cheerfully,,
1325,condition1,NA,verb,2,embed_focus,Hanako said: Emma didn't say quietly that Kevin lost the <strong>KEYS</strong>.,2,The way Emma said that Kevin lost the keys.,6865,backgroundedness,16,quietly,,
1325,condition1,NA,embed,2,filler_bad_2,Hanako said: Frankie didn't hope that the agent of the <strong>GUITARIST</strong> would show up. ,120,"Whose agent would show up, according to Frankie.",14088,backgroundedness,17,hope,,
1325,condition1,0.09,NA,2,filler_bad_1,Hanako said: Tony didn't suggest that Frank and <strong>LISA</strong> were in the office.,116,NA,9099,acceptability,18,suggest,,
1325,condition1,NA,embed,3,embed_focus,Hanako said: Jake didn't say sternly that Yumi found the <strong>WALLET</strong>.,7,"What Yumi found, according to Jake.",8963,backgroundedness,19,sternly,,
1325,condition1,0.06,NA,3,filler_bad_1,Hanako said: Larry didn't believe that Karl and <strong>NICK</strong> cooked dinner.,117,NA,6228,acceptability,20,believe,,
1325,condition1,0.31,NA,3,filler_bad_2,Hanako said: Donald didn't reveal that <strong>KRISHNA</strong>'s parents were moving to Texas.,123,NA,10049,acceptability,21,reveal,,
1325,condition1,NA,embed,3,filler_good_2,Hanako said: <strong>KATE</strong> didn't insist that Zack broke the plates.,109,Who insisted that Zack broke the plates.,3347,backgroundedness,22,insist,,
1325,condition1,NA,embed,3,filler_good_1,Hanako said: Danny didn't believe that Jennifer got a <strong>CAT</strong>.,105,"What Jennifer got, according to Danny.",6014,backgroundedness,23,believe,,
1325,condition1,0.57,NA,3,verb_focus,Hanako said: Yash didn't say <strong>WISTFULLY</strong> that Ming forgot her phone.,9,NA,8444,acceptability,24,wistfully,,
1325,condition1,NA,embed,4,filler_good_2,Hanako said: <strong>JESS</strong> didn't reveal that Todd went out with Betty.,111,Who revealed that Todd went out with Betty.,4666,backgroundedness,25,reveal,,
1325,condition1,0.78,NA,4,embed_focus,Hanako said: Fatima didn't say ruefully that Omar had dinner with his <strong>MANAGER</strong>.,10,NA,7143,acceptability,26,ruefully,,
1325,condition1,NA,embed,4,filler_good_1,Hanako said: Hannah didn't say that George emailed the <strong>STUDENTS</strong>.,101,"Who George emailed, according to Hannah.",5202,backgroundedness,27,say,,
1325,condition1,NA,embed,4,filler_bad_2,Hanako said: Ted didn't insist that <strong>EVA</strong>'s uncle should stay for dinner. ,121,"Whose uncle should stay for dinner, according to Ted.",5653,backgroundedness,28,insist,,
1325,condition1,0.39,NA,4,verb_focus,Hanako said: Igor didn't say <strong>CALMLY</strong> that Penny won the lottery.,11,NA,8399,acceptability,29,calmly,,
1325,condition1,0.12,NA,4,filler_bad_1,Hanako said: Emily didn't say that Kevin and <strong>PAUL</strong> drafted the letter.,113,NA,6458,acceptability,30,say,,
1325,condition1,NA,verb,5,verb_focus,Hanako said: Laura didn't say <strong>BLUNTLY</strong> that Brandon broke his laptop.,4,The way Laura said that Brandon broke his laptop.,4737,backgroundedness,31,bluntly,,
1325,condition1,NA,embed,5,filler_good_1,Hanako said: Ollie didn't think that Doug would invite the <strong>MAYOR</strong>.,102,"Who Doug would invite, according to Ollie.",8623,backgroundedness,32,think,,
1325,condition1,0.48,NA,5,embed_focus,Hanako said: John didn't say softly that Mary met with the <strong>LAWYER</strong>.,1,NA,6278,acceptability,33,softly,,
1325,condition1,NA,embed,5,filler_bad_2,Hanako said: Jessie didn't guess that the assistant to the <strong>DIRECTOR</strong> would give the presentation.,122,"Whose assistant would give the presentation, according to Jessie.",11353,backgroundedness,34,guess,,
1325,condition1,0.74,NA,5,filler_good_2,Hanako said: <strong>SALLY</strong> didn't expect that Tony would visit George.,112,NA,5670,acceptability,35,expect,,
1325,condition1,0.03,NA,5,filler_bad_1,Hanako said: Helen didn't think that Rob and <strong>MARC</strong> cut the bread. ,114,NA,6462,acceptability,36,think,,
1382,condition1,1,NA,practice,practice_acceptability_good_1,Hanako said: Fiona didn't buy <strong>PINEAPPLES</strong>.,201,,,acceptability,0,NA,0,
1382,condition1,NA,correct,practice,practice_bg_good_2,Hanako said: Vera didn't <strong>DRIVE</strong> to Michigan.,202,How Vera travelled to Michigan.,,backgroundedness,0,NA,,
1382,condition1,0,NA,practice,practice_accpetability_bad_2,Hanako said: Prisha doesn't speak <strong>KOREAN</strong>.,204,,,acceptability,0,NA,0,
1382,condition1,NA,correct,practice,practice_bg_bad_1,Hanako said: Hank didn't buy the <strong>RED</strong> car.,203,Which car Hank bought.,,backgroundedness,0,NA,,
1382,condition1,NA,verb,0,verb_focus,Hanako said: Howard didn't say <strong>LOUDLY</strong> that Alex bought a birthday cake.,3,The way Howard said that Alex bought a birthday cake.,23776,backgroundedness,1,loudly,,
1382,condition1,NA,verb,0,filler_bad_1,Hanako said: Tony didn't suggest that Frank and <strong>LISA</strong> were in the office.,116,Who suggested that Frank and Lisa were in the office.,54968,backgroundedness,2,suggest,,
1382,condition1,0.99,NA,0,filler_good_2,Hanako said: <strong>JULIAN</strong> didn't guess that Charlie received a message.,110,NA,16448,acceptability,3,guess,,
1382,condition1,0.14,NA,0,filler_bad_2,Hanako said: Donald didn't reveal that <strong>KRISHNA</strong>'s parents were moving to Texas.,123,NA,12496,acceptability,4,reveal,,
1382,condition1,NA,embed,0,filler_good_1,Hanako said: Danny didn't believe that Jennifer got a <strong>CAT</strong>.,105,"What Jennifer got, according to Danny.",25539,backgroundedness,5,believe,,
1382,condition1,0.87,NA,0,embed_focus,Hanako said: John didn't say softly that Mary met with the <strong>LAWYER</strong>.,1,NA,16384,acceptability,6,softly,,
1382,condition1,NA,verb,1,embed_focus,Hanako said: Laura didn't say bluntly that Brandon broke his <strong>LAPTOP</strong>.,4,The way Laura said that Brandon broke his laptop.,16704,backgroundedness,7,bluntly,,
1382,condition1,NA,embed,1,filler_bad_1,Hanako said: Ben didn't expect that Judith and <strong>LAURA</strong> would order pizza.,118,"Who else would order pizza other than Judith, according to Ben.",58065,backgroundedness,8,expect,,
1382,condition1,0.62,NA,1,filler_good_2,Hanako said: <strong>SALLY</strong> didn't expect that Tony would visit George.,112,NA,12383,acceptability,9,expect,,
1382,condition1,NA,verb,1,verb_focus,Hanako said: Igor didn't say <strong>CALMLY</strong> that Penny won the lottery.,11,The way Igor said that Penny won the lottery.,15120,backgroundedness,10,calmly,,
1382,condition1,0.95,NA,1,filler_good_1,Hanako said: Hannah didn't say that George emailed the <strong>STUDENTS</strong>.,101,NA,13881,acceptability,11,say,,
1382,condition1,0.09,NA,1,filler_bad_2,Hanako said: Jamal didn't expect that the book about <strong>ASTRONOMY</strong> was on the shelf.,124,NA,42842,acceptability,12,expect,,
1382,condition1,NA,verb,2,filler_good_1,Hanako said: Grace didn't suggest that Karen wrote a <strong>BOOK</strong>.,104,"Who wrote a book, according to Grace.",21617,backgroundedness,13,suggest,,
1382,condition1,0.82,NA,2,embed_focus,Hanako said: Jake didn't say sternly that Yumi found the <strong>WALLET</strong>.,7,NA,18159,acceptability,14,sternly,,
1382,condition1,0.89,NA,2,filler_good_2,Hanako said: <strong>MATTHEW</strong> didn't hope that Dana brought a gift.,108,NA,30432,acceptability,15,hope,,
1382,condition1,NA,embed,2,filler_bad_2,Hanako said: Ted didn't insist that <strong>EVA</strong>'s uncle should stay for dinner. ,121,"Whose uncle should stay for dinner, according to Ted.",72060,backgroundedness,16,insist,,
1382,condition1,0.97,NA,2,verb_focus,Hanako said: Emma didn't say <strong>QUIETLY</strong> that Kevin lost the keys.,2,NA,14316,acceptability,17,quietly,,
1382,condition1,NA,embed,2,filler_bad_1,Hanako said: Emily didn't say that Kevin and <strong>PAUL</strong> drafted the letter.,113,"Who else drafted the letter other than Kevin, according to Emily.",30420,backgroundedness,18,say,,
1382,condition1,0.91,NA,3,filler_good_2,Hanako said: <strong>JESS</strong> didn't reveal that Todd went out with Betty.,111,NA,31555,acceptability,19,reveal,,
1382,condition1,NA,verb,3,verb_focus,Hanako said: Bill didn't say <strong>CHEERFULLY</strong> that Dan knew the professor.,5,The way Bill said that Dan knew the professor.,14228,backgroundedness,20,cheerfully,,
1382,condition1,NA,verb,3,embed_focus,Hanako said: Yash didn't say wistfully that Ming forgot her <strong>PHONE</strong>.,9,The way Yash said that Ming forgot her phone.,101708,backgroundedness,21,wistfully,,
1382,condition1,0.08,NA,3,filler_bad_2,Hanako said: Rui didn't imply that <strong>CAROL</strong>'s brother signed the contract.,119,NA,12959,acceptability,22,imply,,
1382,condition1,NA,embed,3,filler_good_1,Hanako said: Ollie didn't think that Doug would invite the <strong>MAYOR</strong>.,102,"Who Doug would invite, according to Ollie.",45280,backgroundedness,23,think,,
1382,condition1,0.02,NA,3,filler_bad_1,Hanako said: Larry didn't believe that Karl and <strong>NICK</strong> cooked dinner.,117,NA,81196,acceptability,24,believe,,
1382,condition1,0.97,NA,4,filler_good_2,Hanako said: <strong>RONALD</strong> didn't imply that Jacy rented the truck.,107,NA,82971,acceptability,25,imply,,
1382,condition1,0.27,NA,4,verb_focus,Hanako said: Ashley didn't say <strong>GENTLY</strong> that Hasan talked to the detectives.,8,NA,18231,acceptability,26,gently,,
1382,condition1,NA,verb,4,filler_good_1,Hanako said: Charlie didn't expect that Maddie would call her <strong>ROOMMATE</strong>.,106,"Who would call Maddie's roommate, according to Charlie.",46009,backgroundedness,27,expect,,
1382,condition1,0.01,NA,4,filler_bad_1,Hanako said: Tim didn't suspect that Liz and <strong>JASON</strong> drank the beer. ,115,NA,21847,acceptability,28,suspect,,
1382,condition1,NA,verb,4,filler_bad_2,Hanako said: Frankie didn't hope that the agent of the <strong>GUITARIST</strong> would show up. ,120,"What the agent of the guitarist did, according to Frankie.",20441,backgroundedness,29,hope,,
1382,condition1,NA,verb,4,embed_focus,Hanako said: Amy didn't say wearily that Charlie saw the <strong>ROBBER</strong>.,6,The way Amy said that Charlie saw the robber.,35008,backgroundedness,30,wearily,,
1382,condition1,0.03,NA,5,filler_bad_2,Hanako said: Jessie didn't guess that the assistant to the <strong>DIRECTOR</strong> would give the presentation.,122,NA,66899,acceptability,31,guess,,
1382,condition1,1,NA,5,filler_good_2,Hanako said: <strong>KATE</strong> didn't insist that Zack broke the plates.,109,NA,7551,acceptability,32,insist,,
1382,condition1,NA,verb,5,filler_bad_1,Hanako said: Helen didn't think that Rob and <strong>MARC</strong> cut the bread. ,114,Who thought that Rob and Marc cut the bread.,18008,backgroundedness,33,think,,
1382,condition1,NA,verb,5,embed_focus,Hanako said: Fatima didn't say ruefully that Omar had dinner with his <strong>MANAGER</strong>.,10,The way Fatima said that Omar had dinner with his manager.,16575,backgroundedness,34,ruefully,,
1382,condition1,NA,verb,5,verb_focus,Hanako said: Chandler didn't say <strong>DRYLY</strong> that Tia brought her parents.,12,The way Chandler said that Tia brought her parents.,21537,backgroundedness,35,dryly,,
1382,condition1,0.47,NA,5,filler_good_1,Hanako said: Nancy didn't suspect that Julian ate the <strong> CUPCAKE</strong>.,103,NA,13687,acceptability,36,suspect,,
1375,condition1,0.97,NA,practice,practice_acceptability_good_1,Hanako said: Fiona didn't buy <strong>PINEAPPLES</strong>.,201,,,acceptability,0,NA,0,
1375,condition1,NA,correct,practice,practice_bg_good_2,Hanako said: Vera didn't <strong>DRIVE</strong> to Michigan.,202,How Vera travelled to Michigan.,,backgroundedness,0,NA,,
1375,condition1,0.24,NA,practice,practice_accpetability_bad_2,Hanako said: Prisha doesn't speak <strong>KOREAN</strong>.,204,,,acceptability,0,NA,0,
1375,condition1,NA,correct,practice,practice_bg_bad_1,Hanako said: Hank didn't buy the <strong>RED</strong> car.,203,Which car Hank bought.,,backgroundedness,0,NA,,
1375,condition1,NA,embed,0,embed_focus,Hanako said: Igor didn't say calmly that Penny won the <strong>LOTTERY</strong>.,11,"What Penny won, according to Igor.",19397,backgroundedness,1,calmly,,
1375,condition1,NA,embed,0,filler_good_1,Hanako said: Charlie didn't expect that Maddie would call her <strong>ROOMMATE</strong>.,106,"Who Maddie would call, according to Charlie.",11411,backgroundedness,2,expect,,
1375,condition1,0.06,NA,0,filler_bad_2,Hanako said: Jessie didn't guess that the assistant to the <strong>DIRECTOR</strong> would give the presentation.,122,NA,15064,acceptability,3,guess,,
1375,condition1,NA,embed,0,filler_bad_1,Hanako said: Larry didn't believe that Karl and <strong>NICK</strong> cooked dinner.,117,"Who else cooked dinner other than Karl, according to Larry.",19200,backgroundedness,4,believe,,
1375,condition1,0,NA,0,verb_focus,Hanako said: Emma didn't say <strong>QUIETLY</strong> that Kevin lost the keys.,2,NA,13323,acceptability,5,quietly,,
1375,condition1,0.99,NA,0,filler_good_2,Hanako said: <strong>JESS</strong> didn't reveal that Todd went out with Betty.,111,NA,12655,acceptability,6,reveal,,
1375,condition1,0.62,NA,1,filler_bad_1,Hanako said: Tim didn't suspect that Liz and <strong>JASON</strong> drank the beer. ,115,NA,16459,acceptability,7,suspect,,
1375,condition1,NA,embed,1,filler_good_1,Hanako said: Danny didn't believe that Jennifer got a <strong>CAT</strong>.,105,"What Jennifer got, according to Danny.",13531,backgroundedness,8,believe,,
1375,condition1,0.93,NA,1,filler_good_2,Hanako said: <strong>SALLY</strong> didn't expect that Tony would visit George.,112,NA,13588,acceptability,9,expect,,
1375,condition1,NA,embed,1,filler_bad_2,Hanako said: Ted didn't insist that <strong>EVA</strong>'s uncle should stay for dinner. ,121,"Whose uncle should stay for dinner, according to Ted.",21608,backgroundedness,10,insist,,
1375,condition1,NA,verb,1,verb_focus,Hanako said: Chandler didn't say <strong>DRYLY</strong> that Tia brought her parents.,12,The way Chandler said that Tia brought her parents.,14763,backgroundedness,11,dryly,,
1375,condition1,0.97,NA,1,embed_focus,Hanako said: Howard didn't say loudly that Alex bought a <strong>BIRTHDAY CAKE</strong>.,3,NA,15838,acceptability,12,loudly,,
1375,condition1,0.03,NA,2,verb_focus,Hanako said: Laura didn't say <strong>BLUNTLY</strong> that Brandon broke his laptop.,4,NA,16719,acceptability,13,bluntly,,
1375,condition1,0.98,NA,2,filler_good_2,Hanako said: <strong>KATE</strong> didn't insist that Zack broke the plates.,109,NA,6692,acceptability,14,insist,,
1375,condition1,NA,embed,2,filler_bad_2,Hanako said: Rui didn't imply that <strong>CAROL</strong>'s brother signed the contract.,119,"Whose brother signed the contract, according to Rui.",17842,backgroundedness,15,imply,,
1375,condition1,0.98,NA,2,embed_focus,Hanako said: Yash didn't say wistfully that Ming forgot her <strong>PHONE</strong>.,9,NA,7410,acceptability,16,wistfully,,
1375,condition1,NA,embed,2,filler_good_1,Hanako said: Grace didn't suggest that Karen wrote a <strong>BOOK</strong>.,104,"What Karen wrote, according to Grace.",9113,backgroundedness,17,suggest,,
1375,condition1,NA,embed,2,filler_bad_1,Hanako said: Helen didn't think that Rob and <strong>MARC</strong> cut the bread. ,114,"Who else cut the bread other than Rob, according to Helen.",17525,backgroundedness,18,think,,
1375,condition1,NA,embed,3,embed_focus,Hanako said: Bill didn't say cheerfully that Dan knew the <strong>PROFESSOR</strong>.,5,"Who Dan knew, according to Bill.",9748,backgroundedness,19,cheerfully,,
1375,condition1,0.75,NA,3,filler_bad_2,Hanako said: Donald didn't reveal that <strong>KRISHNA</strong>'s parents were moving to Texas.,123,NA,13882,acceptability,20,reveal,,
1375,condition1,0,NA,3,verb_focus,Hanako said: Fatima didn't say <strong>RUEFULLY</strong> that Omar had dinner with his manager.,10,NA,14058,acceptability,21,ruefully,,
1375,condition1,NA,embed,3,filler_good_1,Hanako said: Nancy didn't suspect that Julian ate the <strong> CUPCAKE</strong>.,103,"What Julian ate, according to Nancy.",9482,backgroundedness,22,suspect,,
1375,condition1,NA,embed,3,filler_good_2,Hanako said: <strong>JULIAN</strong> didn't guess that Charlie received a message.,110,Who guessed that Charlie received a message.,12692,backgroundedness,23,guess,,
1375,condition1,0.56,NA,3,filler_bad_1,Hanako said: Tony didn't suggest that Frank and <strong>LISA</strong> were in the office.,116,NA,10902,acceptability,24,suggest,,
1375,condition1,0.09,NA,4,verb_focus,Hanako said: John didn't say <strong>SOFTLY</strong> that Mary met with the lawyer.,1,NA,13993,acceptability,25,softly,,
1375,condition1,NA,embed,4,filler_good_1,Hanako said: Hannah didn't say that George emailed the <strong>STUDENTS</strong>.,101,"Who George emailed, according to Hannah.",14703,backgroundedness,26,say,,
1375,condition1,NA,embed,4,filler_good_2,Hanako said: <strong>RONALD</strong> didn't imply that Jacy rented the truck.,107,Who implied that Jacy rented the truck.,9381,backgroundedness,27,imply,,
1375,condition1,NA,embed,4,filler_bad_1,Hanako said: Ben didn't expect that Judith and <strong>LAURA</strong> would order pizza.,118,"Who else would order pizza other than Judith, according to Ben.",18842,backgroundedness,28,expect,,
1375,condition1,0.98,NA,4,embed_focus,Hanako said: Amy didn't say wearily that Charlie saw the <strong>ROBBER</strong>.,6,NA,12961,acceptability,29,wearily,,
1375,condition1,0.66,NA,4,filler_bad_2,Hanako said: Jamal didn't expect that the book about <strong>ASTRONOMY</strong> was on the shelf.,124,NA,14002,acceptability,30,expect,,
1375,condition1,0.63,NA,5,filler_bad_1,Hanako said: Emily didn't say that Kevin and <strong>PAUL</strong> drafted the letter.,113,NA,10501,acceptability,31,say,,
1375,condition1,0.83,NA,5,filler_bad_2,Hanako said: Frankie didn't hope that the agent of the <strong>GUITARIST</strong> would show up. ,120,NA,12906,acceptability,32,hope,,
1375,condition1,NA,verb,5,verb_focus,Hanako said: Ashley didn't say <strong>GENTLY</strong> that Hasan talked to the detectives.,8,The way Ashley said that Hasan talked to the detectives.,11020,backgroundedness,33,gently,,
1375,condition1,NA,embed,5,filler_good_1,Hanako said: Ollie didn't think that Doug would invite the <strong>MAYOR</strong>.,102,"Who Doug would invite, according to Ollie.",10463,backgroundedness,34,think,,
1375,condition1,NA,embed,5,embed_focus,Hanako said: Jake didn't say sternly that Yumi found the <strong>WALLET</strong>.,7,"What Yumi found, according to Jake.",11856,backgroundedness,35,sternly,,
1375,condition1,0.97,NA,5,filler_good_2,Hanako said: <strong>MATTHEW</strong> didn't hope that Dana brought a gift.,108,NA,10962,acceptability,36,hope,,
1347,condition1,1,NA,practice,practice_acceptability_good_1,Hanako said: Fiona didn't buy <strong>PINEAPPLES</strong>.,201,,,acceptability,0,NA,0,
1347,condition1,NA,incorrect,practice,practice_bg_good_2,Hanako said: Vera didn't <strong>DRIVE</strong> to Michigan.,202,Where Vera drove to.,,backgroundedness,0,NA,,
1347,condition1,0,NA,practice,practice_accpetability_bad_2,Hanako said: Prisha doesn't speak <strong>KOREAN</strong>.,204,,,acceptability,0,NA,0,
1347,condition1,NA,correct,practice,practice_bg_bad_1,Hanako said: Hank didn't buy the <strong>RED</strong> car.,203,Which car Hank bought.,,backgroundedness,0,NA,,
1347,condition1,NA,embed,0,filler_bad_2,Hanako said: Ted didn't insist that <strong>EVA</strong>'s uncle should stay for dinner. ,121,"Whose uncle should stay for dinner, according to Ted.",41628,backgroundedness,1,insist,,
1347,condition1,0.95,NA,0,filler_good_2,Hanako said: <strong>JULIAN</strong> didn't guess that Charlie received a message.,110,NA,10962,acceptability,2,guess,,
1347,condition1,0,NA,0,filler_bad_1,Hanako said: Helen didn't think that Rob and <strong>MARC</strong> cut the bread. ,114,NA,6182,acceptability,3,think,,
1347,condition1,NA,embed,0,filler_good_1,Hanako said: Danny didn't believe that Jennifer got a <strong>CAT</strong>.,105,"What Jennifer got, according to Danny.",14073,backgroundedness,4,believe,,
1347,condition1,NA,verb,0,verb_focus,Hanako said: John didn't say <strong>SOFTLY</strong> that Mary met with the lawyer.,1,The way John said that Mary met with the lawyer.,10968,backgroundedness,5,softly,,
1347,condition1,0,NA,0,embed_focus,Hanako said: Amy didn't say wearily that Charlie saw the <strong>ROBBER</strong>.,6,NA,14161,acceptability,6,wearily,,
1347,condition1,NA,embed,1,filler_good_2,Hanako said: <strong>JESS</strong> didn't reveal that Todd went out with Betty.,111,Who revealed that Todd went out with Betty.,12125,backgroundedness,7,reveal,,
1347,condition1,NA,verb,1,verb_focus,Hanako said: Yash didn't say <strong>WISTFULLY</strong> that Ming forgot her phone.,9,The way Yash said that Ming forgot her phone.,7587,backgroundedness,8,wistfully,,
1347,condition1,0.09,NA,1,filler_bad_2,Hanako said: Jamal didn't expect that the book about <strong>ASTRONOMY</strong> was on the shelf.,124,NA,13347,acceptability,9,expect,,
1347,condition1,NA,embed,1,embed_focus,Hanako said: Howard didn't say loudly that Alex bought a <strong>BIRTHDAY CAKE</strong>.,3,"What Alex bought, according to Howard.",11382,backgroundedness,10,loudly,,
1347,condition1,0.04,NA,1,filler_bad_1,Hanako said: Larry didn't believe that Karl and <strong>NICK</strong> cooked dinner.,117,NA,10596,acceptability,11,believe,,
1347,condition1,0.92,NA,1,filler_good_1,Hanako said: Grace didn't suggest that Karen wrote a <strong>BOOK</strong>.,104,NA,13953,acceptability,12,suggest,,
1347,condition1,1,NA,2,filler_good_2,Hanako said: <strong>RONALD</strong> didn't imply that Jacy rented the truck.,107,NA,6106,acceptability,13,imply,,
1347,condition1,NA,embed,2,filler_bad_2,Hanako said: Jessie didn't guess that the assistant to the <strong>DIRECTOR</strong> would give the presentation.,122,"Whose assistant would give the presentation, according to Jessie.",14014,backgroundedness,14,guess,,
1347,condition1,0.66,NA,2,embed_focus,Hanako said: Ashley didn't say gently that Hasan talked to the <strong>DETECTIVES</strong>.,8,NA,21693,acceptability,15,gently,,
1347,condition1,NA,verb,2,verb_focus,Hanako said: Igor didn't say <strong>CALMLY</strong> that Penny won the lottery.,11,The way Igor said that Penny won the lottery.,8827,backgroundedness,16,calmly,,
1347,condition1,NA,embed,2,filler_bad_1,Hanako said: Emily didn't say that Kevin and <strong>PAUL</strong> drafted the letter.,113,"Who else drafted the letter other than Kevin, according to Emily.",6106,backgroundedness,17,say,,
1347,condition1,1,NA,2,filler_good_1,Hanako said: Charlie didn't expect that Maddie would call her <strong>ROOMMATE</strong>.,106,NA,8898,acceptability,18,expect,,
1347,condition1,NA,embed,3,filler_bad_2,Hanako said: Donald didn't reveal that <strong>KRISHNA</strong>'s parents were moving to Texas.,123,"Whose parents were moving to Texas, according to Donald.",6493,backgroundedness,19,reveal,,
1347,condition1,0.94,NA,3,filler_good_1,Hanako said: Nancy didn't suspect that Julian ate the <strong> CUPCAKE</strong>.,103,NA,8106,acceptability,20,suspect,,
1347,condition1,0.86,NA,3,verb_focus,Hanako said: Fatima didn't say <strong>RUEFULLY</strong> that Omar had dinner with his manager.,10,NA,6601,acceptability,21,ruefully,,
1347,condition1,0.06,NA,3,filler_bad_1,Hanako said: Ben didn't expect that Judith and <strong>LAURA</strong> would order pizza.,118,NA,10607,acceptability,22,expect,,
1347,condition1,NA,embed,3,filler_good_2,Hanako said: <strong>MATTHEW</strong> didn't hope that Dana brought a gift.,108,Who hoped that Dana brought a gift.,8943,backgroundedness,23,hope,,
1347,condition1,NA,embed,3,embed_focus,Hanako said: Bill didn't say cheerfully that Dan knew the <strong>PROFESSOR</strong>.,5,"Who Dan knew, according to Bill.",5576,backgroundedness,24,cheerfully,,
1347,condition1,NA,embed,4,filler_good_2,Hanako said: <strong>KATE</strong> didn't insist that Zack broke the plates.,109,Who insisted that Zack broke the plates.,7752,backgroundedness,25,insist,,
1347,condition1,NA,verb,4,verb_focus,Hanako said: Laura didn't say <strong>BLUNTLY</strong> that Brandon broke his laptop.,4,The way Laura said that Brandon broke his laptop.,6062,backgroundedness,26,bluntly,,
1347,condition1,0.83,NA,4,filler_bad_2,Hanako said: Frankie didn't hope that the agent of the <strong>GUITARIST</strong> would show up. ,120,NA,12349,acceptability,27,hope,,
1347,condition1,0.86,NA,4,embed_focus,Hanako said: Emma didn't say quietly that Kevin lost the <strong>KEYS</strong>.,2,NA,7943,acceptability,28,quietly,,
1347,condition1,NA,embed,4,filler_bad_1,Hanako said: Tim didn't suspect that Liz and <strong>JASON</strong> drank the beer. ,115,"Who else drank the beer other than Liz, according to Tim.",6535,backgroundedness,29,suspect,,
1347,condition1,1,NA,4,filler_good_1,Hanako said: Hannah didn't say that George emailed the <strong>STUDENTS</strong>.,101,NA,5247,acceptability,30,say,,
1347,condition1,1,NA,5,filler_good_2,Hanako said: <strong>SALLY</strong> didn't expect that Tony would visit George.,112,NA,4962,acceptability,31,expect,,
1347,condition1,NA,embed,5,filler_bad_2,Hanako said: Rui didn't imply that <strong>CAROL</strong>'s brother signed the contract.,119,"Whose brother signed the contract, according to Rui.",5404,backgroundedness,32,imply,,
1347,condition1,1,NA,5,filler_good_1,Hanako said: Ollie didn't think that Doug would invite the <strong>MAYOR</strong>.,102,NA,6202,acceptability,33,think,,
1347,condition1,0.7,NA,5,verb_focus,Hanako said: Jake didn't say <strong>STERNLY</strong> that Yumi found the wallet.,7,NA,8447,acceptability,34,sternly,,
1347,condition1,NA,embed,5,filler_bad_1,Hanako said: Tony didn't suggest that Frank and <strong>LISA</strong> were in the office.,116,"Who else was in the office other than Frank, according to Tony.",5990,backgroundedness,35,suggest,,
1347,condition1,NA,embed,5,embed_focus,Hanako said: Chandler didn't say dryly that Tia brought her <strong>PARENTS</strong>.,12,"Who Tia brought, according to Chandler.",10424,backgroundedness,36,dryly,,
1372,condition1,0.73,NA,practice,practice_acceptability_good_1,Hanako said: Fiona didn't buy <strong>PINEAPPLES</strong>.,201,,,acceptability,0,NA,0,
1372,condition1,NA,correct,practice,practice_bg_good_2,Hanako said: Vera didn't <strong>DRIVE</strong> to Michigan.,202,How Vera travelled to Michigan.,,backgroundedness,0,NA,,
1372,condition1,0.13,NA,practice,practice_accpetability_bad_2,Hanako said: Prisha doesn't speak <strong>KOREAN</strong>.,204,,,acceptability,0,NA,0,
1372,condition1,NA,correct,practice,practice_bg_bad_1,Hanako said: Hank didn't buy the <strong>RED</strong> car.,203,Which car Hank bought.,,backgroundedness,0,NA,,
1372,condition1,0,NA,0,filler_bad_2,Hanako said: Ted didn't insist that <strong>EVA</strong>'s uncle should stay for dinner. ,121,NA,14177,acceptability,1,insist,,
1372,condition1,0.64,NA,0,filler_good_2,Hanako said: <strong>SALLY</strong> didn't expect that Tony would visit George.,112,NA,12906,acceptability,2,expect,,
1372,condition1,NA,embed,0,filler_good_1,Hanako said: Hannah didn't say that George emailed the <strong>STUDENTS</strong>.,101,"Who George emailed, according to Hannah.",14582,backgroundedness,3,say,,
1372,condition1,NA,verb,0,verb_focus,Hanako said: Amy didn't say <strong>WEARILY</strong> that Charlie saw the robber.,6,The way Amy said that Charlie saw the robber.,11190,backgroundedness,4,wearily,,
1372,condition1,NA,embed,0,filler_bad_1,Hanako said: Ben didn't expect that Judith and <strong>LAURA</strong> would order pizza.,118,"Who else would order pizza other than Judith, according to Ben.",21449,backgroundedness,5,expect,,
1372,condition1,0.06,NA,0,embed_focus,Hanako said: Bill didn't say cheerfully that Dan knew the <strong>PROFESSOR</strong>.,5,NA,21261,acceptability,6,cheerfully,,
1372,condition1,NA,embed,1,embed_focus,Hanako said: John didn't say softly that Mary met with the <strong>LAWYER</strong>.,1,"Who Mary met with, according to John.",82616,backgroundedness,7,softly,,
1372,condition1,0.99,NA,1,filler_good_1,Hanako said: Charlie didn't expect that Maddie would call her <strong>ROOMMATE</strong>.,106,NA,11744,acceptability,8,expect,,
1372,condition1,NA,embed,1,filler_bad_1,Hanako said: Tim didn't suspect that Liz and <strong>JASON</strong> drank the beer. ,115,"Who else drank the beer other than Liz, according to Tim.",15030,backgroundedness,9,suspect,,
1372,condition1,0.05,NA,1,verb_focus,Hanako said: Ashley didn't say <strong>GENTLY</strong> that Hasan talked to the detectives.,8,NA,23786,acceptability,10,gently,,
1372,condition1,NA,embed,1,filler_bad_2,Hanako said: Frankie didn't hope that the agent of the <strong>GUITARIST</strong> would show up. ,120,"Whose agent would show up, according to Frankie.",14236,backgroundedness,11,hope,,
1372,condition1,0.86,NA,1,filler_good_2,Hanako said: <strong>JULIAN</strong> didn't guess that Charlie received a message.,110,NA,12345,acceptability,12,guess,,
1372,condition1,NA,embed,2,filler_bad_2,Hanako said: Jamal didn't expect that the book about <strong>ASTRONOMY</strong> was on the shelf.,124,"Which book was on the shelf, according to Jamal.",15893,backgroundedness,13,expect,,
1372,condition1,NA,embed,2,filler_good_1,Hanako said: Danny didn't believe that Jennifer got a <strong>CAT</strong>.,105,"What Jennifer got, according to Danny.",10193,backgroundedness,14,believe,,
1372,condition1,0.43,NA,2,filler_good_2,Hanako said: <strong>JESS</strong> didn't reveal that Todd went out with Betty.,111,NA,14698,acceptability,15,reveal,,
1372,condition1,0.09,NA,2,filler_bad_1,Hanako said: Helen didn't think that Rob and <strong>MARC</strong> cut the bread. ,114,NA,8373,acceptability,16,think,,
1372,condition1,0.53,NA,2,embed_focus,Hanako said: Emma didn't say quietly that Kevin lost the <strong>KEYS</strong>.,2,NA,17014,acceptability,17,quietly,,
1372,condition1,NA,verb,2,verb_focus,Hanako said: Igor didn't say <strong>CALMLY</strong> that Penny won the lottery.,11,The way Igor said that Penny won the lottery.,15325,backgroundedness,18,calmly,,
1372,condition1,NA,embed,3,filler_good_1,Hanako said: Ollie didn't think that Doug would invite the <strong>MAYOR</strong>.,102,"Who Doug would invite, according to Ollie.",17751,backgroundedness,19,think,,
1372,condition1,NA,embed,3,filler_good_2,Hanako said: <strong>MATTHEW</strong> didn't hope that Dana brought a gift.,108,Who hoped that Dana brought a gift.,13497,backgroundedness,20,hope,,
1372,condition1,0.16,NA,3,filler_bad_1,Hanako said: Tony didn't suggest that Frank and <strong>LISA</strong> were in the office.,116,NA,17232,acceptability,21,suggest,,
1372,condition1,NA,embed,3,embed_focus,Hanako said: Laura didn't say bluntly that Brandon broke his <strong>LAPTOP</strong>.,4,"What Brandon broke, according to Laura.",14181,backgroundedness,22,bluntly,,
1372,condition1,0.65,NA,3,filler_bad_2,Hanako said: Rui didn't imply that <strong>CAROL</strong>'s brother signed the contract.,119,NA,11154,acceptability,23,imply,,
1372,condition1,0.69,NA,3,verb_focus,Hanako said: Fatima didn't say <strong>RUEFULLY</strong> that Omar had dinner with his manager.,10,NA,13227,acceptability,24,ruefully,,
1372,condition1,NA,embed,4,embed_focus,Hanako said: Jake didn't say sternly that Yumi found the <strong>WALLET</strong>.,7,"What Yumi found, according to Jake.",14783,backgroundedness,25,sternly,,
1372,condition1,0.78,NA,4,filler_good_2,Hanako said: <strong>KATE</strong> didn't insist that Zack broke the plates.,109,NA,13684,acceptability,26,insist,,
1372,condition1,0.75,NA,4,filler_bad_2,Hanako said: Donald didn't reveal that <strong>KRISHNA</strong>'s parents were moving to Texas.,123,NA,7720,acceptability,27,reveal,,
1372,condition1,0.76,NA,4,filler_good_1,Hanako said: Nancy didn't suspect that Julian ate the <strong> CUPCAKE</strong>.,103,NA,7206,acceptability,28,suspect,,
1372,condition1,NA,embed,4,filler_bad_1,Hanako said: Larry didn't believe that Karl and <strong>NICK</strong> cooked dinner.,117,"Who else cooked dinner other than Karl, according to Larry.",12780,backgroundedness,29,believe,,
1372,condition1,NA,verb,4,verb_focus,Hanako said: Howard didn't say <strong>LOUDLY</strong> that Alex bought a birthday cake.,3,The way Howard said that Alex bought a birthday cake.,11425,backgroundedness,30,loudly,,
1372,condition1,NA,embed,5,filler_bad_1,Hanako said: Emily didn't say that Kevin and <strong>PAUL</strong> drafted the letter.,113,"Who else drafted the letter other than Kevin, according to Emily.",9048,backgroundedness,31,say,,
1372,condition1,0.64,NA,5,filler_bad_2,Hanako said: Jessie didn't guess that the assistant to the <strong>DIRECTOR</strong> would give the presentation.,122,NA,19182,acceptability,32,guess,,
1372,condition1,0.79,NA,5,filler_good_2,Hanako said: <strong>RONALD</strong> didn't imply that Jacy rented the truck.,107,NA,7418,acceptability,33,imply,,
1372,condition1,NA,embed,5,filler_good_1,Hanako said: Grace didn't suggest that Karen wrote a <strong>BOOK</strong>.,104,"What Karen wrote, according to Grace.",11851,backgroundedness,34,suggest,,
1372,condition1,NA,verb,5,verb_focus,Hanako said: Yash didn't say <strong>WISTFULLY</strong> that Ming forgot her phone.,9,The way Yash said that Ming forgot her phone.,12208,backgroundedness,35,wistfully,,
1372,condition1,0.64,NA,5,embed_focus,Hanako said: Chandler didn't say dryly that Tia brought her <strong>PARENTS</strong>.,12,NA,19385,acceptability,36,dryly,,
1359,condition1,0.69,NA,practice,practice_acceptability_good_1,Hanako said: Fiona didn't buy <strong>PINEAPPLES</strong>.,201,,,acceptability,0,NA,0,
1359,condition1,NA,correct,practice,practice_bg_good_2,Hanako said: Vera didn't <strong>DRIVE</strong> to Michigan.,202,How Vera travelled to Michigan.,,backgroundedness,0,NA,,
1359,condition1,0.38,NA,practice,practice_accpetability_bad_2,Hanako said: Prisha doesn't speak <strong>KOREAN</strong>.,204,,,acceptability,0,NA,0,
1359,condition1,NA,correct,practice,practice_bg_bad_1,Hanako said: Hank didn't buy the <strong>RED</strong> car.,203,Which car Hank bought.,,backgroundedness,0,NA,,
1359,condition1,0.2,NA,0,verb_focus,Hanako said: Fatima didn't say <strong>RUEFULLY</strong> that Omar had dinner with his manager.,10,NA,17845,acceptability,1,ruefully,,
1359,condition1,0.77,NA,0,filler_good_1,Hanako said: Nancy didn't suspect that Julian ate the <strong> CUPCAKE</strong>.,103,NA,19452,acceptability,2,suspect,,
1359,condition1,NA,embed,0,filler_bad_2,Hanako said: Rui didn't imply that <strong>CAROL</strong>'s brother signed the contract.,119,"Whose brother signed the contract, according to Rui.",28627,backgroundedness,3,imply,,
1359,condition1,0.75,NA,0,embed_focus,Hanako said: Igor didn't say calmly that Penny won the <strong>LOTTERY</strong>.,11,NA,12748,acceptability,4,calmly,,
1359,condition1,NA,embed,0,filler_bad_1,Hanako said: Larry didn't believe that Karl and <strong>NICK</strong> cooked dinner.,117,"Who else cooked dinner other than Karl, according to Larry.",27108,backgroundedness,5,believe,,
1359,condition1,NA,embed,0,filler_good_2,Hanako said: <strong>JESS</strong> didn't reveal that Todd went out with Betty.,111,Who revealed that Todd went out with Betty.,17135,backgroundedness,6,reveal,,
1359,condition1,NA,embed,1,filler_bad_2,Hanako said: Jamal didn't expect that the book about <strong>ASTRONOMY</strong> was on the shelf.,124,"Which book was on the shelf, according to Jamal.",14703,backgroundedness,7,expect,,
1359,condition1,NA,embed,1,filler_bad_1,Hanako said: Emily didn't say that Kevin and <strong>PAUL</strong> drafted the letter.,113,"Who else drafted the letter other than Kevin, according to Emily.",8883,backgroundedness,8,say,,
1359,condition1,0.79,NA,1,embed_focus,Hanako said: Jake didn't say sternly that Yumi found the <strong>WALLET</strong>.,7,NA,11302,acceptability,9,sternly,,
1359,condition1,0.8,NA,1,filler_good_2,Hanako said: <strong>MATTHEW</strong> didn't hope that Dana brought a gift.,108,NA,8720,acceptability,10,hope,,
1359,condition1,NA,embed,1,filler_good_1,Hanako said: Hannah didn't say that George emailed the <strong>STUDENTS</strong>.,101,"Who George emailed, according to Hannah.",6923,backgroundedness,11,say,,
1359,condition1,0.2,NA,1,verb_focus,Hanako said: Ashley didn't say <strong>GENTLY</strong> that Hasan talked to the detectives.,8,NA,16532,acceptability,12,gently,,
1359,condition1,NA,embed,2,filler_good_1,Hanako said: Danny didn't believe that Jennifer got a <strong>CAT</strong>.,105,"What Jennifer got, according to Danny.",19179,backgroundedness,13,believe,,
1359,condition1,NA,embed,2,filler_bad_2,Hanako said: Frankie didn't hope that the agent of the <strong>GUITARIST</strong> would show up. ,120,"Whose agent would show up, according to Frankie.",15200,backgroundedness,14,hope,,
1359,condition1,0.85,NA,2,embed_focus,Hanako said: Bill didn't say cheerfully that Dan knew the <strong>PROFESSOR</strong>.,5,NA,11363,acceptability,15,cheerfully,,
1359,condition1,0.81,NA,2,filler_bad_1,Hanako said: Tim didn't suspect that Liz and <strong>JASON</strong> drank the beer. ,115,NA,6886,acceptability,16,suspect,,
1359,condition1,NA,verb,2,verb_focus,Hanako said: Laura didn't say <strong>BLUNTLY</strong> that Brandon broke his laptop.,4,The way Laura said that Brandon broke his laptop.,14507,backgroundedness,17,bluntly,,
1359,condition1,0.84,NA,2,filler_good_2,Hanako said: <strong>JULIAN</strong> didn't guess that Charlie received a message.,110,NA,5741,acceptability,18,guess,,
1359,condition1,0.86,NA,3,filler_bad_2,Hanako said: Donald didn't reveal that <strong>KRISHNA</strong>'s parents were moving to Texas.,123,NA,5951,acceptability,19,reveal,,
1359,condition1,NA,embed,3,filler_good_1,Hanako said: Grace didn't suggest that Karen wrote a <strong>BOOK</strong>.,104,"What Karen wrote, according to Grace.",9782,backgroundedness,20,suggest,,
1359,condition1,0.86,NA,3,filler_good_2,Hanako said: <strong>SALLY</strong> didn't expect that Tony would visit George.,112,NA,8407,acceptability,21,expect,,
1359,condition1,0.82,NA,3,embed_focus,Hanako said: Amy didn't say wearily that Charlie saw the <strong>ROBBER</strong>.,6,NA,11703,acceptability,22,wearily,,
1359,condition1,NA,verb,3,verb_focus,Hanako said: John didn't say <strong>SOFTLY</strong> that Mary met with the lawyer.,1,The way John said that Mary met with the lawyer.,8589,backgroundedness,23,softly,,
1359,condition1,NA,embed,3,filler_bad_1,Hanako said: Ben didn't expect that Judith and <strong>LAURA</strong> would order pizza.,118,"Who else would order pizza other than Judith, according to Ben.",10847,backgroundedness,24,expect,,
1359,condition1,NA,embed,4,embed_focus,Hanako said: Chandler didn't say dryly that Tia brought her <strong>PARENTS</strong>.,12,"Who Tia brought, according to Chandler.",10600,backgroundedness,25,dryly,,
1359,condition1,0.89,NA,4,filler_bad_2,Hanako said: Ted didn't insist that <strong>EVA</strong>'s uncle should stay for dinner. ,121,NA,6573,acceptability,26,insist,,
1359,condition1,0.85,NA,4,filler_good_2,Hanako said: <strong>KATE</strong> didn't insist that Zack broke the plates.,109,NA,6707,acceptability,27,insist,,
1359,condition1,NA,verb,4,verb_focus,Hanako said: Yash didn't say <strong>WISTFULLY</strong> that Ming forgot her phone.,9,The way Yash said that Ming forgot her phone.,6999,backgroundedness,28,wistfully,,
1359,condition1,0.79,NA,4,filler_good_1,Hanako said: Ollie didn't think that Doug would invite the <strong>MAYOR</strong>.,102,NA,5075,acceptability,29,think,,
1359,condition1,NA,embed,4,filler_bad_1,Hanako said: Helen didn't think that Rob and <strong>MARC</strong> cut the bread. ,114,"Who else cut the bread other than Rob, according to Helen.",8652,backgroundedness,30,think,,
1359,condition1,0.84,NA,5,filler_good_1,Hanako said: Charlie didn't expect that Maddie would call her <strong>ROOMMATE</strong>.,106,NA,5821,acceptability,31,expect,,
1359,condition1,NA,embed,5,filler_bad_2,Hanako said: Jessie didn't guess that the assistant to the <strong>DIRECTOR</strong> would give the presentation.,122,"Whose assistant would give the presentation, according to Jessie.",15732,backgroundedness,32,guess,,
1359,condition1,0.06,NA,5,verb_focus,Hanako said: Howard didn't say <strong>LOUDLY</strong> that Alex bought a birthday cake.,3,NA,6810,acceptability,33,loudly,,
1359,condition1,0.87,NA,5,filler_bad_1,Hanako said: Tony didn't suggest that Frank and <strong>LISA</strong> were in the office.,116,NA,4903,acceptability,34,suggest,,
1359,condition1,NA,embed,5,filler_good_2,Hanako said: <strong>RONALD</strong> didn't imply that Jacy rented the truck.,107,Who implied that Jacy rented the truck.,5931,backgroundedness,35,imply,,
1359,condition1,NA,embed,5,embed_focus,Hanako said: Emma didn't say quietly that Kevin lost the <strong>KEYS</strong>.,2,"What Kevin lost, according to Emma.",13428,backgroundedness,36,quietly,,
1417,condition1,0.9,NA,practice,practice_acceptability_good_1,Hanako said: Fiona didn't buy <strong>PINEAPPLES</strong>.,201,,,acceptability,0,NA,0,
1417,condition1,NA,correct,practice,practice_bg_good_2,Hanako said: Vera didn't <strong>DRIVE</strong> to Michigan.,202,How Vera travelled to Michigan.,,backgroundedness,0,NA,,
1417,condition1,0,NA,practice,practice_accpetability_bad_2,Hanako said: Prisha doesn't speak <strong>KOREAN</strong>.,204,,,acceptability,0,NA,0,
1417,condition1,NA,correct,practice,practice_bg_bad_1,Hanako said: Hank didn't buy the <strong>RED</strong> car.,203,Which car Hank bought.,,backgroundedness,0,NA,,
1417,condition1,0,NA,0,filler_bad_1,Hanako said: Emily didn't say that Kevin and <strong>PAUL</strong> drafted the letter.,113,NA,14265,acceptability,1,say,,
1417,condition1,NA,embed,0,filler_bad_2,Hanako said: Jessie didn't guess that the assistant to the <strong>DIRECTOR</strong> would give the presentation.,122,"Whose assistant would give the presentation, according to Jessie.",20291,backgroundedness,2,guess,,
1417,condition1,1,NA,0,filler_good_1,Hanako said: Ollie didn't think that Doug would invite the <strong>MAYOR</strong>.,102,NA,13354,acceptability,3,think,,
1417,condition1,NA,embed,0,filler_good_2,Hanako said: <strong>JULIAN</strong> didn't guess that Charlie received a message.,110,Who guessed that Charlie received a message.,10410,backgroundedness,4,guess,,
1417,condition1,0.46,NA,0,verb_focus,Hanako said: John didn't say <strong>SOFTLY</strong> that Mary met with the lawyer.,1,NA,22739,acceptability,5,softly,,
1417,condition1,NA,embed,0,embed_focus,Hanako said: Igor didn't say calmly that Penny won the <strong>LOTTERY</strong>.,11,"What Penny won, according to Igor.",12602,backgroundedness,6,calmly,,
1417,condition1,0.2,NA,1,embed_focus,Hanako said: Ashley didn't say gently that Hasan talked to the <strong>DETECTIVES</strong>.,8,NA,12113,acceptability,7,gently,,
1417,condition1,NA,embed,1,filler_good_1,Hanako said: Charlie didn't expect that Maddie would call her <strong>ROOMMATE</strong>.,106,"Who Maddie would call, according to Charlie.",15763,backgroundedness,8,expect,,
1417,condition1,NA,embed,1,filler_good_2,Hanako said: <strong>RONALD</strong> didn't imply that Jacy rented the truck.,107,Who implied that Jacy rented the truck.,12698,backgroundedness,9,imply,,
1417,condition1,0.27,NA,1,filler_bad_2,Hanako said: Frankie didn't hope that the agent of the <strong>GUITARIST</strong> would show up. ,120,NA,10913,acceptability,10,hope,,
1417,condition1,NA,embed,1,filler_bad_1,Hanako said: Larry didn't believe that Karl and <strong>NICK</strong> cooked dinner.,117,"Who else cooked dinner other than Karl, according to Larry.",16090,backgroundedness,11,believe,,
1417,condition1,0.28,NA,1,verb_focus,Hanako said: Amy didn't say <strong>WEARILY</strong> that Charlie saw the robber.,6,NA,14153,acceptability,12,wearily,,
1417,condition1,0.36,NA,2,embed_focus,Hanako said: Bill didn't say cheerfully that Dan knew the <strong>PROFESSOR</strong>.,5,NA,12249,acceptability,13,cheerfully,,
1417,condition1,0.15,NA,2,filler_bad_2,Hanako said: Ted didn't insist that <strong>EVA</strong>'s uncle should stay for dinner. ,121,NA,13169,acceptability,14,insist,,
1417,condition1,NA,embed,2,filler_good_1,Hanako said: Danny didn't believe that Jennifer got a <strong>CAT</strong>.,105,"What Jennifer got, according to Danny.",10498,backgroundedness,15,believe,,
1417,condition1,0.45,NA,2,verb_focus,Hanako said: Fatima didn't say <strong>RUEFULLY</strong> that Omar had dinner with his manager.,10,NA,16458,acceptability,16,ruefully,,
1417,condition1,NA,embed,2,filler_bad_1,Hanako said: Tony didn't suggest that Frank and <strong>LISA</strong> were in the office.,116,"Who else was in the office other than Frank, according to Tony.",12027,backgroundedness,17,suggest,,
1417,condition1,NA,embed,2,filler_good_2,Hanako said: <strong>JESS</strong> didn't reveal that Todd went out with Betty.,111,Who revealed that Todd went out with Betty.,8512,backgroundedness,18,reveal,,
1417,condition1,NA,embed,3,filler_good_2,Hanako said: <strong>MATTHEW</strong> didn't hope that Dana brought a gift.,108,Who hoped that Dana brought a gift.,8458,backgroundedness,19,hope,,
1417,condition1,0.12,NA,3,filler_bad_2,Hanako said: Donald didn't reveal that <strong>KRISHNA</strong>'s parents were moving to Texas.,123,NA,10865,acceptability,20,reveal,,
1417,condition1,0.9,NA,3,filler_good_1,Hanako said: Grace didn't suggest that Karen wrote a <strong>BOOK</strong>.,104,NA,10802,acceptability,21,suggest,,
1417,condition1,NA,verb,3,verb_focus,Hanako said: Yash didn't say <strong>WISTFULLY</strong> that Ming forgot her phone.,9,The way Yash said that Ming forgot her phone.,8978,backgroundedness,22,wistfully,,
1417,condition1,0.08,NA,3,filler_bad_1,Hanako said: Helen didn't think that Rob and <strong>MARC</strong> cut the bread. ,114,NA,9705,acceptability,23,think,,
1417,condition1,NA,embed,3,embed_focus,Hanako said: Chandler didn't say dryly that Tia brought her <strong>PARENTS</strong>.,12,"Who Tia brought, according to Chandler.",8681,backgroundedness,24,dryly,,
1417,condition1,0.5,NA,4,embed_focus,Hanako said: Howard didn't say loudly that Alex bought a <strong>BIRTHDAY CAKE</strong>.,3,NA,11954,acceptability,25,loudly,,
1417,condition1,1,NA,4,filler_good_2,Hanako said: <strong>KATE</strong> didn't insist that Zack broke the plates.,109,NA,7240,acceptability,26,insist,,
1417,condition1,NA,embed,4,filler_good_1,Hanako said: Nancy didn't suspect that Julian ate the <strong> CUPCAKE</strong>.,103,"What Julian ate, according to Nancy.",7081,backgroundedness,27,suspect,,
1417,condition1,NA,verb,4,verb_focus,Hanako said: Emma didn't say <strong>QUIETLY</strong> that Kevin lost the keys.,2,The way Emma said that Kevin lost the keys.,9009,backgroundedness,28,quietly,,
1417,condition1,NA,embed,4,filler_bad_2,Hanako said: Rui didn't imply that <strong>CAROL</strong>'s brother signed the contract.,119,"Whose brother signed the contract, according to Rui.",7305,backgroundedness,29,imply,,
1417,condition1,0.12,NA,4,filler_bad_1,Hanako said: Ben didn't expect that Judith and <strong>LAURA</strong> would order pizza.,118,NA,9881,acceptability,30,expect,,
1417,condition1,0.12,NA,5,filler_bad_1,Hanako said: Tim didn't suspect that Liz and <strong>JASON</strong> drank the beer. ,115,NA,15530,acceptability,31,suspect,,
1417,condition1,1,NA,5,filler_good_1,Hanako said: Hannah didn't say that George emailed the <strong>STUDENTS</strong>.,101,NA,10298,acceptability,32,say,,
1417,condition1,NA,embed,5,embed_focus,Hanako said: Laura didn't say bluntly that Brandon broke his <strong>LAPTOP</strong>.,4,"What Brandon broke, according to Laura.",6529,backgroundedness,33,bluntly,,
1417,condition1,NA,embed,5,filler_good_2,Hanako said: <strong>SALLY</strong> didn't expect that Tony would visit George.,112,Who expected that Tony would visit George.,6962,backgroundedness,34,expect,,
1417,condition1,0.46,NA,5,verb_focus,Hanako said: Jake didn't say <strong>STERNLY</strong> that Yumi found the wallet.,7,NA,9592,acceptability,35,sternly,,
1417,condition1,NA,embed,5,filler_bad_2,Hanako said: Jamal didn't expect that the book about <strong>ASTRONOMY</strong> was on the shelf.,124,"Which book was on the shelf, according to Jamal.",7962,backgroundedness,36,expect,,
1399,condition1,1,NA,practice,practice_acceptability_good_1,Hanako said: Fiona didn't buy <strong>PINEAPPLES</strong>.,201,,,acceptability,0,NA,0,
1399,condition1,NA,correct,practice,practice_bg_good_2,Hanako said: Vera didn't <strong>DRIVE</strong> to Michigan.,202,How Vera travelled to Michigan.,,backgroundedness,0,NA,,
1399,condition1,0,NA,practice,practice_accpetability_bad_2,Hanako said: Prisha doesn't speak <strong>KOREAN</strong>.,204,,,acceptability,0,NA,0,
1399,condition1,NA,correct,practice,practice_bg_bad_1,Hanako said: Hank didn't buy the <strong>RED</strong> car.,203,Which car Hank bought.,,backgroundedness,0,NA,,
1399,condition1,0.02,NA,0,filler_bad_1,Hanako said: Ben didn't expect that Judith and <strong>LAURA</strong> would order pizza.,118,NA,11022,acceptability,1,expect,,
1399,condition1,0.31,NA,0,verb_focus,Hanako said: Laura didn't say <strong>BLUNTLY</strong> that Brandon broke his laptop.,4,NA,14257,acceptability,2,bluntly,,
1399,condition1,0.13,NA,0,embed_focus,Hanako said: Ashley didn't say gently that Hasan talked to the <strong>DETECTIVES</strong>.,8,NA,10066,acceptability,3,gently,,
1399,condition1,NA,embed,0,filler_good_1,Hanako said: Grace didn't suggest that Karen wrote a <strong>BOOK</strong>.,104,"What Karen wrote, according to Grace.",12671,backgroundedness,4,suggest,,
1399,condition1,NA,embed,0,filler_good_2,Hanako said: <strong>SALLY</strong> didn't expect that Tony would visit George.,112,Who expected that Tony would visit George.,20837,backgroundedness,5,expect,,
1399,condition1,NA,embed,0,filler_bad_2,Hanako said: Rui didn't imply that <strong>CAROL</strong>'s brother signed the contract.,119,"Whose brother signed the contract, according to Rui.",37631,backgroundedness,6,imply,,
1399,condition1,NA,embed,1,filler_good_2,Hanako said: <strong>JULIAN</strong> didn't guess that Charlie received a message.,110,Who guessed that Charlie received a message.,19847,backgroundedness,7,guess,,
1399,condition1,NA,embed,1,embed_focus,Hanako said: Emma didn't say quietly that Kevin lost the <strong>KEYS</strong>.,2,"What Kevin lost, according to Emma.",14617,backgroundedness,8,quietly,,
1399,condition1,0.27,NA,1,filler_good_1,Hanako said: Charlie didn't expect that Maddie would call her <strong>ROOMMATE</strong>.,106,NA,12777,acceptability,9,expect,,
1399,condition1,NA,embed,1,filler_bad_1,Hanako said: Emily didn't say that Kevin and <strong>PAUL</strong> drafted the letter.,113,"Who else drafted the letter other than Kevin, according to Emily.",18199,backgroundedness,10,say,,
1399,condition1,0.68,NA,1,verb_focus,Hanako said: Amy didn't say <strong>WEARILY</strong> that Charlie saw the robber.,6,NA,8722,acceptability,11,wearily,,
1399,condition1,0.52,NA,1,filler_bad_2,Hanako said: Donald didn't reveal that <strong>KRISHNA</strong>'s parents were moving to Texas.,123,NA,15062,acceptability,12,reveal,,
1399,condition1,NA,embed,2,filler_good_1,Hanako said: Danny didn't believe that Jennifer got a <strong>CAT</strong>.,105,"What Jennifer got, according to Danny.",13947,backgroundedness,13,believe,,
1399,condition1,0.97,NA,2,filler_good_2,Hanako said: <strong>KATE</strong> didn't insist that Zack broke the plates.,109,NA,10711,acceptability,14,insist,,
